id,t,ax,ay,az,wx,wy,wz,qw,qx,qy,qz
i,0,0.0232393436583457,-0.0536503416448832,-9.80838252288103,0.00121432391460985,0.551137804985046,-0.00336107984185219,-0.193429368221913,0.801852601611098,0.334562062801113,0.455725454115307
i,0.0100023746490479,0.0268453916265629,-0.0590911033601267,-9.81415526106358,-0.000210145517485216,0.552648842334747,-0.00382342911325395,-0.193434489064007,0.801845394500002,0.334585791476825,0.455718520958727
i,0.020000696182251,0.0324047816026607,-0.0639190760724246,-9.81752678332329,0.000396238989196718,0.553133308887482,-0.00205571134574711,-0.19344232837783,0.801844003654002,0.334586255092159,0.455717425140666
i,0.0300009250640869,0.0420483310532756,-0.066036223490024,-9.80966847103834,-0.00063354941084981,0.550455212593079,-0.00238216877914965,-0.193433877934703,0.801855551890494,0.334572093751059,0.455711124186813
i,0.0400035381317139,0.04926997113619,-0.0669087091753492,-9.81212112488747,0.000153307119035162,0.554109394550323,-0.00180271780118346,-0.193424194696258,0.801861621036679,0.334534920230672,0.455731723459023
i,0.0500020980834961,0.0503514233970782,-0.0600206164623145,-9.8084012275815,0.000329354894347489,0.551199793815613,-0.0023831722792238,-0.193419695520179,0.801870050406381,0.334530368371033,0.455722103440851
i,0.0600025653839111,0.0520756716401083,-0.0569968390611932,-9.81008231253624,-2.97405349556357e-05,0.554801881313324,-0.00161449855659157,-0.193456826893717,0.801842275633213,0.334577193519729,0.455720839035395
i,0.072002649307251,0.0435424557682825,-0.0525679623688105,-9.80956676422953,0.000534356920979917,0.550158202648163,-0.000971729517914355,-0.193473116650667,0.801836838689755,0.33460800286599,0.455701051090019
i,0.0820047855377197,0.0365166830340517,-0.0505569285070756,-9.81322470221519,0.00108000228647143,0.551944673061371,-0.00225462298840284,-0.193466994820921,0.801840273657908,0.33459908880753,0.455704096199824
i,0.0920035839080811,0.0273960706121521,-0.0529743649123469,-9.8074262450695,0.000907850044313818,0.548575043678284,-0.00265783304348588,-0.193448545037985,0.801855046128311,0.334589373958948,0.455693127482499
i,0.102003812789917,0.0271907230490702,-0.0552130152511876,-9.79928034801483,-0.000631067086942494,0.554167807102203,-0.0027731079608202,-0.193410697168022,0.801878458702659,0.334521201431482,0.455717951976272
i,0.112012147903442,0.0258127126941341,-0.061097493012785,-9.795655143255,0.000397437834180892,0.550783276557922,-0.000903866661246866,-0.193373966189545,0.801912155108044,0.334451933085954,0.455725180160792
i,0.122010707855225,0.034113571981655,-0.0646691911868285,-9.80618822770715,0.00076880503911525,0.553934216499329,-0.00278041581623256,-0.193382153214868,0.801907223926768,0.334461753301658,0.455723104428503
i,0.13201117515564,0.0412082908994053,-0.0668838441621512,-9.8170954061687,0.00117795402184129,0.553398430347443,-0.00149881595280021,-0.193402394238866,0.801897614445307,0.334471109902027,0.455724484737791
i,0.142013549804688,0.0474413446366554,-0.0650536376268836,-9.81413304923177,2.40171793848276e-05,0.551261782646179,-0.00169564236421138,-0.1933999918685,0.801903788958614,0.33447201605927,0.455714116613058
i,0.152011871337891,0.0520913121672347,-0.0579610124848084,-9.8107591888845,0.000175091947312467,0.553697824478149,-0.0019195731729269,-0.193403205565699,0.801897445857913,0.334465462224326,0.45572868888593
i,0.162012100219727,0.0476371138039278,-0.056692051994917,-9.80277754248083,-6.25069733359851e-05,0.552503824234009,-0.00202020769938827,-0.19338493490687,0.80191139646477,0.334434147115883,0.45573477910554
i,0.172014474868774,0.0436528664733516,-0.0529917955377605,-9.80982044672966,-0.000485310913063586,0.553985297679901,-0.00291345035657287,-0.193353229940078,0.801930109665509,0.334374635765785,0.455758939786449
i,0.182012796401978,0.0319102989168721,-0.0513750445235055,-9.81442531017661,-0.000801510934252292,0.550374329090118,-0.00257061189040542,-0.193322009662043,0.801952552862341,0.334341740150523,0.45575686405416
i,0.192013263702393,0.0266178527812706,-0.0539648692204617,-9.81369816494584,0.000676138559356332,0.554064214229584,-0.0026662340387702,-0.193332999452792,0.801942859087184,0.334356407253804,0.455758476171115
i,0.20201563835144,0.0252507451295503,-0.054188868968375,-9.80778163437843,-0.000867790135089308,0.550000131130219,-0.00290619418956339,-0.19332867940082,0.801945198237276,0.334371432605299,0.455745305280956
i,0.212013959884644,0.0275433130461373,-0.0595968380922917,-9.80525065459609,-4.65275079477578e-05,0.555304408073425,-0.00343525758944452,-0.193317552632813,0.801949286481582,0.33434365783213,0.455763259838421
i,0.222014427185059,0.0353807012740639,-0.0646592725810129,-9.80941245045066,-0.000118172851216514,0.551705002784729,-0.00209343968890607,-0.193305614537972,0.80196066613068,0.334313817863384,0.455770098164592
i,0.232016801834106,0.0426130431307945,-0.0652176234164042,-9.81667688849568,-0.000116186696686782,0.552508056163788,-0.00313920807093382,-0.19332783646385,0.801944144566063,0.334355880418198,0.455758918713025
i,0.242015361785889,0.0514818430659594,-0.0650811603880487,-9.81568553937077,0.000133123394334689,0.550540089607239,-0.00246413704007864,-0.193355094938124,0.801928697746084,0.334400914325832,0.455741480454453
i,0.252015590667725,0.0523196912627434,-0.0580679114919621,-9.80900094704032,-0.000319147162372246,0.551234662532806,-0.00226503401063383,-0.193348351442363,0.801933987175572,0.334398153707254,0.455736928594814
i,0.262018203735352,0.0476763041700004,-0.0557738092054147,-9.80562533312738,0.000461144663859159,0.552731812000275,-0.00218955683521926,-0.193338046537902,0.801939761293818,0.33436658571772,0.455754314169825
i,0.272016525268555,0.0422442646173295,-0.0547603532799752,-9.80094681992233,0.000416649942053482,0.551791608333588,-0.0020638033747673,-0.193324412032408,0.801950087271703,0.334347408901647,0.45575602111719
i,0.282017230987549,0.0333521705715451,-0.0507692286840407,-9.805839268139,0.00088384747505188,0.5535609126091,-0.00227933446876705,-0.193324159151317,0.801947516313944,0.334338515916612,0.455767190032045
i,0.292019844055176,0.0284116751121939,-0.0544560000385391,-9.81341058017611,-0.000266708782874048,0.551451623439789,-0.00319803506135941,-0.1933151081156,0.801948274957217,0.334348631160254,0.455762290460906
i,0.302018165588379,0.0245123273028061,-0.0556330170618137,-9.81036639017463,0.000460505922092125,0.554708302021027,-0.00310844322666526,-0.193342219075904,0.801926042494628,0.334388986767703,0.455760383316011
i,0.312018394470215,0.0244995819856646,-0.0608983080457197,-9.8079254267633,0.000875009864103049,0.550565242767334,-0.00376970041543245,-0.19335740247808,0.801918877530381,0.334428351924212,0.455737529187406
i,0.322020769119263,0.0325039562443737,-0.063620718746935,-9.80239000446796,0.000224507472012192,0.553643107414246,-0.00211510411463678,-0.193336687302037,0.801936010224301,0.334377754632575,0.455753439622718
i,0.332025289535522,0.0441109992041252,-0.0664253050060011,-9.80643138881326,-0.000139643700094894,0.550441026687622,-0.00185902556404471,-0.193313074530159,0.80195769477786,0.334329517564454,0.45576053082998
i,0.342025518417358,0.0510829479754437,-0.0650694653836777,-9.81267291355133,-0.000454064254881814,0.552792072296143,-0.00196195649914443,-0.193306868406716,0.801965808046198,0.334312637751626,0.455761257863117
i,0.352028131484985,0.051976362284366,-0.0599566067488166,-9.81123732779026,0.000732285669073462,0.553217113018036,-0.00225200480781496,-0.193302601038304,0.801967388553017,0.33430304934359,0.455767379692863
i,0.362026691436768,0.0492159348274348,-0.0574642465103883,-9.80921254396439,-0.000427548482548445,0.551807761192322,-0.00190450227819383,-0.193318701134435,0.801957505117041,0.334335017728185,0.455754482757219
i,0.372026920318604,0.0405188336307881,-0.0524619081784505,-9.80237948307395,0.000476059038192034,0.551539123058319,-0.00213929428718984,-0.193350385027803,0.80193179553945,0.334386436883368,0.455748634881988
i,0.382029294967651,0.0316276597503223,-0.0540357653324725,-9.80361282426119,0.000385827996069565,0.550891578197479,-0.00213740766048431,-0.193353672481987,0.801934661525148,0.334399755287498,0.455732324051614
i,0.392027854919434,0.0256397284641163,-0.0531334781639278,-9.80875895497799,0.000590910553000867,0.552303910255432,-0.00243163667619228,-0.193337772583386,0.801945092870155,0.334372718084178,0.455740679664332
i,0.40202808380127,0.0247667610048898,-0.0566460985279176,-9.81271616817117,-8.71070806169882e-05,0.549985706806183,-0.00253189750947058,-0.193316720232555,0.801963447822681,0.334352255789226,0.455732229221205
i,0.412030458450317,0.0252092783247121,-0.0601801498390036,-9.81129110380411,0.000348066503647715,0.554786443710327,-0.00362438568845391,-0.193318932942102,0.801956472519253,0.334349368730103,0.455745737286153
i,0.4220290184021,0.0312035046376754,-0.0648016127943061,-9.80759575641751,0.000169374921824783,0.549995601177216,-0.00248843501321971,-0.193317478875828,0.801962731326257,0.33434648167098,0.455737371136724
i,0.432029247283936,0.0407513317789882,-0.0648632798536681,-9.81210125114322,0.000110291468445212,0.55388081073761,-0.00200131582096219,-0.193318090005132,0.801963026354196,0.334340960433825,0.455740679664332
i,0.442031860351562,0.0468850807270734,-0.0638612723374274,-9.80739000471234,0.000146493461215869,0.551516115665436,-0.0022441407199949,-0.193316267153934,0.801963447822681,0.334335902812004,0.455744441270561
i,0.452030181884766,0.0514232082139002,-0.0589715914665721,-9.81014076472521,0.00121521088294685,0.554879486560822,-0.00161627377383411,-0.193291284609479,0.801985069155968,0.334275590671785,0.455761205179556
i,0.462030172348022,0.0499497700938955,-0.0571653183627408,-9.81276760609746,0.00072376080788672,0.552313029766083,-0.00197894242592156,-0.193254648461411,0.802010462632195,0.334213445143655,0.455777652987188
i,0.47203254699707,0.0402694711127551,-0.0521300184761174,-9.80748002108335,7.21420219633728e-05,0.553322434425354,-0.00259892316535115,-0.193228043263288,0.802028206455418,0.33417285772854,0.455787483739603
i,0.482031106948853,0.0326915352553246,-0.0530039517664351,-9.80969652808905,-0.000285887566860765,0.551428198814392,-0.00264986068941653,-0.193206295489457,0.802039944352729,0.33414240663049,0.455798273332822
i,0.492031335830688,0.027135930971778,-0.0535937069536652,-9.80387878172099,-0.000269659445621073,0.550908863544464,-0.00210881442762911,-0.193191839120417,0.802057414221436,0.334125526817662,0.455786261480996
i,0.502027988433838,0.0237738660935778,-0.0578871800636174,-9.80429963748157,-2.48952565016225e-05,0.553846478462219,-0.00230683269910514,-0.193184779523292,0.802057962130467,0.334111323329714,0.455798505140489
i,0.512026071548462,0.0260342076744186,-0.0619849114057608,-9.80578490760326,0.000203703588340431,0.550540447235107,-0.00285139353945851,-0.193177424898227,0.802066749748382,0.334110037850834,0.455787146564815
i,0.522026300430298,0.0323621389041771,-0.0626881962703308,-9.81063176311254,-0.000116205381345935,0.555438458919525,-0.00369324581697583,-0.193195463749389,0.802049996376099,0.33412105925172,0.455800970731127
i,0.532022953033447,0.0422418534645345,-0.0639874742666725,-9.80717957683206,-0.000151553860632703,0.550333797931671,-0.00364535651169717,-0.19319769753236,0.802049532760765,0.334136527145123,0.455789380347786
i,0.54202127456665,0.0496749215081567,-0.0638653274580371,-9.8047175706327,-0.000376902928110212,0.553478538990021,-0.00318028917536139,-0.193194599738995,0.802050059596371,0.334122681905387,0.455799938133338
i,0.552027702331543,0.0505720621441258,-0.0607899386006873,-9.81099884285927,-0.000152249471284449,0.550131380558014,-0.00294399610720575,-0.19318546440958,0.802057414221437,0.334115748748807,0.455795923646017
i,0.562030076980591,0.0511064567151945,-0.0564686093694298,-9.81157868857384,4.98665613122284e-05,0.553270101547241,-0.0012717074714601,-0.193173494704603,0.802070100422838,0.334079460312239,0.455805322393235
i,0.572028636932373,0.0423554151079152,-0.0527699146816973,-9.81149334837794,-0.000401732191676274,0.550903260707855,-0.00180850469041616,-0.193153896420045,0.802085441875696,0.334045574246037,0.455811475833118
i,0.582028865814209,0.033114249612845,-0.0507265083537437,-9.80897405903339,0.000633520539849997,0.553579568862915,-0.00302382092922926,-0.193148596453845,0.80208506255406,0.334049325315554,0.455811591736951
i,0.592025518417358,0.0276880895284005,-0.0505770260136109,-9.81060838223696,-0.000201360264327377,0.551165759563446,-0.0025343659799546,-0.19314901792233,0.802081669732754,0.334063086261593,0.4558073770521
i,0.602024078369141,0.025003528902831,-0.0585670475199819,-9.81683003323078,-0.000403430836740881,0.553844928741455,-0.00304133398458362,-0.193140209230991,0.802087528144698,0.334055289094618,0.455806576261979
i,0.612024545669556,0.0282672799391323,-0.0609417224957608,-9.8095293548286,-0.00021079953876324,0.554199278354645,-0.00356414122506976,-0.193135910252443,0.802088413228516,0.334034426404605,0.45582208630223
i,0.622020959854126,0.0338958124615718,-0.0660574078419479,-9.80827029467821,-0.000615733908489347,0.548163771629333,-0.00189369078725576,-0.193117607983477,0.802110898572197,0.334020876192809,0.455800222624565
i,0.632019281387329,0.0428943260238972,-0.0662403540602652,-9.80943349323869,0.000271839060587808,0.554412245750427,-0.00289017730392516,-0.193127143707953,0.802101394457858,0.334013943036229,0.455817913764228
i,0.642019748687744,0.048867340585473,-0.0645510538330302,-9.8086619243443,-0.000859966443385929,0.549529254436493,-0.00154709373600781,-0.193127249075074,0.802106325639133,0.334019548567081,0.455805122195705
i,0.652016162872314,0.0512320832557045,-0.0587305081531173,-9.81042601140737,3.50747723132372e-05,0.554594695568085,-0.00215525203384459,-0.193168721574009,0.802074610135629,0.334070567327204,0.455805880838978
i,0.662014722824097,0.0477804814971052,-0.0567047699125949,-9.80317677093148,0.000765428354497999,0.550379931926727,-0.00182489491999149,-0.193201100890378,0.802054463942041,0.334125273936571,0.455787536423164
i,0.672014713287354,0.0420261055217357,-0.0506552286492428,-9.80812416420579,0.000911335635464638,0.554455041885376,-0.00214448967017233,-0.193203418967046,0.802052356599615,0.334124852468086,0.455790570996256
i,0.682011365890503,0.0306567551918211,-0.0516582773450995,-9.80808909289241,0.000214616826269776,0.550303041934967,-0.00317709008231759,-0.193190574714962,0.802058067497588,0.33412259761169,0.4557875680333
i,0.692009687423706,0.0274524290254456,-0.0543074492801679,-9.81112393054366,0.000612148083746433,0.551260054111481,-0.00246956897899508,-0.193185422262731,0.802067318730836,0.334119162643537,0.455776072480369
i,0.702009916305542,0.0251855503892526,-0.0569116815283894,-9.80778397246599,-0.000578684266656637,0.550131320953369,-0.00233452068641782,-0.1931788789645,0.802072334205809,0.334116591685777,0.45577186833223
i,0.712006330490112,0.030393058187759,-0.0604366407841444,-9.81269629442692,-0.000590244133491069,0.55092191696167,-0.00288639008067548,-0.193156119666304,0.802091489948457,0.334095581481795,0.455763228228285
i,0.722004652023315,0.0352148934202152,-0.0642243106632726,-9.80574925176799,7.91062484495342e-06,0.552566766738892,-0.00255650002509356,-0.193136026156277,0.802105588069284,0.334042623966641,0.455785724108678
i,0.73200511932373,0.0441677617595065,-0.0644612840571906,-9.80375603212416,1.91920917131938e-05,0.550236403942108,-0.00250128307379782,-0.193113551349308,0.802128537028299,0.334002816268222,0.455784259505692
i,0.742001533508301,0.0505851408214075,-0.0671146115775686,-9.80804934540391,-0.000164835000759922,0.554278016090393,-0.00271860975772142,-0.193106038673561,0.802131107986058,0.333981953578209,0.455798094208716
i,0.752000093460083,0.0524709363016998,-0.0590957156031625,-9.81030326181054,0.000200734531972557,0.550200223922729,-0.00185833463910967,-0.193094090042008,0.802144363169914,0.333966000996048,0.455791371786378
i,0.762000560760498,0.0486126534383511,-0.0558946317066438,-9.81468717598319,-0.000998344155959785,0.552834272384644,-0.00109117780812085,-0.193095312300615,0.802144110288823,0.333956560101982,0.45579841031008
i,0.771997213363647,0.0402976194950053,-0.0514818932983093,-9.80742741411328,-0.000343076739227399,0.550921738147736,-0.00251421122811735,-0.193094764391585,0.802144953225793,0.333958245975922,0.455795755058623
i,0.78199577331543,0.0313807380678365,-0.0496602034296375,-9.80773136549592,0.000178356451215222,0.554304897785187,-0.00265683000907302,-0.193083827284396,0.802148388193947,0.333940312491881,0.455807492955934
i,0.791996002197266,0.0235730759746046,-0.0530868899426889,-9.80849475108385,0.00108469126280397,0.552927136421204,-0.00382588524371386,-0.193070350829585,0.802152982200435,0.333926446178721,0.455815363879893
i,0.801992654800415,0.0250460414538626,-0.0567366217890056,-9.8091552608192,0.000512060767505318,0.552562952041626,-0.00257088569924235,-0.193065103546945,0.802157323325831,0.333930450129329,0.455806913436767
i,0.811990976333618,0.0249594454492209,-0.0641120915936073,-9.80992916780114,0.000297990918625146,0.552419245243073,-0.00330840609967709,-0.193070066338357,0.802152434291404,0.333943262771276,0.455804184428325
i,0.821991682052612,0.0336264186523738,-0.0664453522801865,-9.80931658886075,0.000419800024246797,0.55299985408783,-0.00196234951727092,-0.193070519416979,0.802154520560405,0.333945896949308,0.455798378699943
i,0.831987857818604,0.0415435735686449,-0.0664657055150485,-9.81040964479446,-0.000431087770266458,0.552594244480133,-0.00202095555141568,-0.193071351817237,0.802152371071131,0.333934559447059,0.455810063913693
i,0.841986179351807,0.049459278596635,-0.0632833948176587,-9.80463047687113,-0.000364504405297339,0.551119983196259,-0.001479288097471,-0.193067927385795,0.802161959479168,0.333925223920114,0.45580143434646
i,0.851986408233643,0.0494425055583473,-0.0580784146196675,-9.8071994505763,0.00023346790112555,0.55418986082077,-0.00315540190786123,-0.193062996204519,0.802159241007439,0.333916899917533,0.455814331282104
i,0.861982822418213,0.0480358216647757,-0.0563006689239992,-9.8108947979629,-0.000307413167320192,0.551500976085663,-0.00266274181194603,-0.193053660677574,0.802167038174413,0.333912643085833,0.455807735300313
i,0.871981143951416,0.0416084326655138,-0.0541939196028281,-9.80640391628444,0.000426472339313477,0.554692566394806,-0.00251913606189191,-0.193074249413072,0.802148324973674,0.33393649820209,0.455814415575801
i,0.881981611251831,0.0306209737756755,-0.0541211694604484,-9.80592636190057,0.00141462497413158,0.548727810382843,-0.0019544679671526,-0.193086788100504,0.802142445488307,0.333965558454139,0.455798252259398
i,0.891978025436401,0.0243935917273862,-0.0543340267598396,-9.80513842639327,0.00040518690366298,0.553466200828552,-0.00338321574963629,-0.193049604043405,0.802163835013926,0.333910620037105,0.455816596675212
i,0.901976823806763,0.0238267333585536,-0.0570593783368124,-9.81110405679941,0.00118846702389419,0.550208330154419,-0.00223752623423934,-0.193015433485975,0.802191925888459,0.333846788635035,0.45582847154978
i,0.911977052688599,0.0287217822409817,-0.0608909467231715,-9.80946622646451,0.000114471098640934,0.55175769329071,-0.00143190054222941,-0.192989839812217,0.802215970665534,0.333803103426554,0.455828861408129
i,0.921973705291748,0.0350995941941859,-0.0642705609577941,-9.80868413617611,-0.000791496015153825,0.551441192626953,-0.00231197359971702,-0.192972380480221,0.802227856076815,0.333769723122533,0.455839914419151
i,0.93197226524353,0.0421920869055204,-0.0661697958749719,-9.80415233796537,-8.53404635563493e-05,0.550312101840973,-0.00316136423498392,-0.192959125296364,0.80224170131655,0.33375663652607,0.455830705332751
i,0.941972732543945,0.0522733131040586,-0.0651616782783531,-9.80896003050804,-0.00057020818348974,0.552045166492462,-0.00234661158174276,-0.192958282359394,0.802239298946185,0.333744708967942,0.455843939443183
i,0.951969146728516,0.0518913691483438,-0.0609431290015578,-9.81520740046501,-0.000315183482598513,0.551165521144867,-0.00187281449325383,-0.192951370276238,0.802248276224918,0.333735900276603,0.455837617415907
i,0.961967945098877,0.0512926223704824,-0.0535360995814903,-9.81620927098393,0.000876069185324013,0.554081439971924,-0.00241782097145915,-0.192955058125483,0.80224085837958,0.33372721802581,0.455855466606251
i,0.971974849700928,0.0405333507799078,-0.0520009396031965,-9.81249171176553,0.00101687200367451,0.552363455295563,-0.0032193826045841,-0.192948493753828,0.802243935099521,0.333728946046599,0.455851494265779
i,0.981976985931396,0.0338490004780469,-0.0527745132250013,-9.80980057298541,0.000310115166939795,0.554220259189606,-0.00337838567793369,-0.192948493753828,0.80223872996373,0.333730273672327,0.455859628607542
i,0.993979454040527,0.0262953017294407,-0.0544138185643591,-9.804943780604,-0.000222576461965218,0.550096333026886,-0.00285510648973286,-0.192939484864958,0.802245241651825,0.333733118584601,0.455850050736217
i,1.00397777557373,0.0244397232908988,-0.0591333533329656,-9.80314111509621,0.00126314978115261,0.55391263961792,-0.00242116069421172,-0.192941023224929,0.802245325945522,0.333721317467018,0.455857784682919
i,1.01397824287415,0.0285611346194404,-0.0617763786550378,-9.81013959568143,-0.000565534690394998,0.551144659519196,-0.00219560228288174,-0.192929506598573,0.80225571514368,0.333705954940736,0.45585556143666
i,1.02397465705872,0.0345939485102775,-0.065897166645783,-9.80963456876874,-0.000225281983148307,0.554429292678833,-0.00215504295192659,-0.19292740979286,0.802256958475711,0.333685408352087,0.455869332919411
i,1.03397297859192,0.046029788205144,-0.0669252401850419,-9.81171546669602,-0.000490026141051203,0.54997330904007,-0.0026884451508522,-0.192914207292564,0.802269412869446,0.333672279608776,0.455862557813513
i,1.04397296905518,0.0503992263278691,-0.0637344995860243,-9.80888170457482,0.000199771457118914,0.553872525691986,-0.00204771081916988,-0.192907284672696,0.802278116193664,0.333643682972061,0.455871166307321
i,1.05396962165833,0.0524235215299763,-0.0607594384311465,-9.80916110603809,0.000201171875232831,0.553814470767975,-0.00212699780240655,-0.192898317930675,0.80228131935415,0.333614601646588,0.455890585467773
i,1.06396794319153,0.0502076721114106,-0.0555818987959297,-9.80648984100223,-0.000675879535265267,0.552946269512177,-0.00118069699965417,-0.192890921158762,0.802290085898641,0.333590999411422,0.455895579869321
i,1.07396817207336,0.0414055487708654,-0.0532993910490535,-9.80644249472916,-0.000201757793547586,0.553687572479248,-0.00136039708741009,-0.192890204662337,0.802289011154004,0.333574541067079,0.455909867650967
i,1.08396482467651,0.0297212073577801,-0.0520846449644305,-9.80854735805392,-0.000652652117423713,0.552362859249115,-0.00355586200021207,-0.192870205982719,0.802299969334617,0.333571422200289,0.455901375060992
i,1.0939633846283,0.0249326305075316,-0.0525296442189952,-9.80516005370319,0.000303973240079358,0.553754150867462,-0.00365430791862309,-0.192870058468749,0.802294890639371,0.333568240113226,0.455912649342968
i,1.10396385192871,0.0243146127736196,-0.0573788286826806,-9.80422540320158,0.000245361297857016,0.551279425621033,-0.00327904964797199,-0.192861218167274,0.802299821820647,0.333568113672681,0.45590770762498
i,1.11396026611328,0.0289555795804132,-0.0637853803898906,-9.80572119471729,-0.00128042476717383,0.555030763149261,-0.00263496022671461,-0.192857561928165,0.802299505719283,0.333548367874154,0.455924387240279
i,1.12395882606506,0.0369917258004309,-0.0644119376232848,-9.81167104303241,0.000851447344757617,0.550203442573547,-0.00307665020227432,-0.19284921685216,0.802309241641289,0.333542256581119,0.455915241374152
i,1.13395929336548,0.0454423345728545,-0.0655018471852643,-9.81720763437152,-0.000279992644209415,0.553947031497955,-0.00265085021965206,-0.192847804932735,0.802308609438561,0.333535639525903,0.455921837355944
i,1.14395594596863,0.0513087058556033,-0.0634959552895278,-9.81017583603859,0.000270652846666053,0.548463106155396,-0.00227319588884711,-0.192847109509735,0.802316174797869,0.333535070543448,0.455909087934269
i,1.15395474433899,0.0510725727119017,-0.0593447538942099,-9.81325626639724,0.000834156002383679,0.552793741226196,-0.00200204714201391,-0.192862956724775,0.802308145823228,0.333550348776034,0.455905463305297
i,1.16395568847656,0.0485618319999892,-0.0552738968592603,-9.8098859131813,2.38968641497195e-06,0.550820529460907,-0.00248318468220532,-0.192875168774131,0.802297672331373,0.333576669482929,0.455899404695824
i,1.17395234107971,0.0416934669007314,-0.0485982915528584,-9.80886416891813,0.000272110046353191,0.551532983779907,-0.00208743405528367,-0.192870026858612,0.802301086226102,0.333579914790264,0.455893209109093
i,1.18395686149597,0.031842199833435,-0.0493158698042622,-9.80830419694781,0.0010054272133857,0.549959480762482,-0.0025600316002965,-0.192857667295287,0.802312423728352,0.33355795628219,0.45589448405126
i,1.19395756721497,0.0245057719811448,-0.0520753793791635,-9.80484733449221,0.000565484398975968,0.552471876144409,-0.0025296937674284,-0.192841050900261,0.802323719083752,0.333542699123029,0.455892808714032
i,1.20395374298096,0.0233918536392041,-0.0570273118312703,-9.8092686580658,0.000424732483224943,0.553657948970795,-0.00183478672988713,-0.192845286658536,0.802319567619174,0.33353715681245,0.455902354975219
i,1.21395206451416,0.0266816775483894,-0.0622734323238255,-9.80517992744744,-0.000334264012053609,0.549376845359802,-0.00239348132163286,-0.192838227061411,0.802331221222787,0.333536377095752,0.455885433015542
i,1.22395253181458,0.035352879402088,-0.0671327043566853,-9.80846435594559,-0.000492023944389075,0.554115355014801,-0.00186276878230274,-0.192849554026948,0.802321274566539,0.33354295200412,0.455893451453472
i,1.23394918441772,0.0443921268336009,-0.0661585027294001,-9.81325743544102,-0.00033622098271735,0.549830555915833,-0.00168051093351096,-0.192852093374571,0.802329830376787,0.333552603632429,0.455870133709533
i,1.24194979667664,0.0515402084899601,-0.0632271437189309,-9.81231518615484,8.88647919055074e-05,0.553825497627258,-0.00308343628421426,-0.192864621525291,0.802315416154596,0.333573424175593,0.455875012207248
i,1.25195217132568,0.0526846292847302,-0.0591179502678569,-9.81233389085531,0.00033417678787373,0.549893379211426,-0.0016155787743628,-0.192873756854706,0.802311896892745,0.333591273365938,0.45586427529759
i,1.26195096969604,0.0467501840347191,-0.0547349996430101,-9.80902783504724,-0.000669616216327995,0.554118454456329,-0.00201599765568972,-0.192866360082792,0.802315942990202,0.333575679031989,0.455871714216352
i,1.27195167541504,0.0407889010101324,-0.053369136383594,-9.81061072032452,0.000129841617308557,0.551649808883667,-0.00243492354638875,-0.19285659255065,0.802323086881025,0.333554963855946,0.455878531469099
i,1.28195452690125,0.0296690775950323,-0.0507459574063076,-9.80529800086915,-0.00117076351307333,0.551711618900299,-0.00185648782644421,-0.192840639968488,0.802333244271516,0.333547419570062,0.455872736277428
i,1.29195308685303,0.0254614355880301,-0.0542099208895583,-9.80721815527678,-0.00073451834032312,0.552220642566681,-0.00191414961591363,-0.192846003154961,0.802327364786149,0.33355186606258,0.455877572628295
i,1.3019540309906,0.0243575568662025,-0.0549915590868099,-9.80592753094435,-0.000574540463276207,0.552153944969177,-0.00280611193738878,-0.192841040363549,0.802327111905058,0.333561559837737,0.455873052378792
i,1.31195640563965,0.0255610120885423,-0.0611139372575097,-9.80202760089636,-0.000195789674762636,0.554282486438751,-0.00192841736134142,-0.192846919848916,0.802322349311176,0.33355612289428,0.455882935814768
i,1.32195854187012,0.0390011773431441,-0.0655493624216877,-9.81064345355034,-0.000898290250916034,0.550614416599274,-0.00226256274618208,-0.192837995253744,0.802331663764697,0.333557935208766,0.455869058964896
i,1.33195900917053,0.0465102103995392,-0.0653008675533347,-9.81852631575465,0.000713181507308036,0.554736196994781,-0.00164294114802033,-0.192858857943757,0.802315395081172,0.333572433724653,0.455878246977871
i,1.34196519851685,0.0525889549244894,-0.0629211373765254,-9.81049498499036,0.000302985776215792,0.551818907260895,-0.00313813961111009,-0.192871976150356,0.802308904466501,0.333598059008548,0.455865255211818
i,1.35196375846863,0.0533561490378575,-0.0599202750601107,-9.80980174202919,0.000912113930098712,0.55435973405838,-0.00227687554433942,-0.192873187872251,0.802308314410622,0.333589629638846,0.455872135684837
i,1.36196422576904,0.0485482555657858,-0.0540626807388617,-9.80497709835172,-1.91005092347041e-05,0.549678146839142,-0.00218546995893121,-0.192864726892412,0.802314425703656,0.333585288513449,0.455868079050668
i,1.37196660041809,0.0402514833649155,-0.0523993917357177,-9.80991046310067,0.000141543263453059,0.553553760051727,-0.00347204133868217,-0.192863588927502,0.802311306836866,0.333591863421817,0.455869174868729
i,1.38196516036987,0.029316718210117,-0.0528903261909727,-9.81261913753748,0.000685889623127878,0.551310241222382,-0.00309989391826093,-0.192869183921642,0.802306565316409,0.333603685612824,0.455866445860288
i,1.39196586608887,0.0240149790897849,-0.0549163840919035,-9.8069165419817,-0.000141598487971351,0.553149878978729,-0.00322116469033062,-0.192866739404428,0.80230582774656,0.33360762634316,0.455865982244955
i,1.40197443962097,0.0225692692269222,-0.0566187858293066,-9.80365140270591,0.000520379049703479,0.550240278244019,-0.00313098845072091,-0.19286204003082,0.802309705256623,0.333604254595279,0.455863600948014
i,1.41197872161865,0.0275984567498788,-0.0601192910638172,-9.80551135135889,0.00010996509809047,0.550347447395325,-0.00268813176080585,-0.19285847862212,0.802317966038931,0.333607204874675,0.455848449155974
i,1.42197918891907,0.0370215158672072,-0.0655060712692328,-9.80990227979422,-0.000328833208186552,0.553811728954315,-0.00250750663690269,-0.192877497387511,0.802302203117588,0.333628025417839,0.455852821891507
i,1.43198204040527,0.0464585304446518,-0.0666149092939682,-9.81348773706555,0.000624906504526734,0.551220834255219,-0.00176248769275844,-0.1928947775954,0.802299758600374,0.333651796240399,0.455832380669979
i,1.44198083877563,0.0504321148173185,-0.0616063786832616,-9.81517349819541,0.000671707326546311,0.5531125664711,-0.00144999579060823,-0.192909476308819,0.802290928835611,0.333661300354739,0.455834877870754
i,1.45198154449463,0.0504638799287612,-0.0574165531774517,-9.80501567679643,0.00016316503752023,0.550111472606659,-0.00181272928602993,-0.192916535905944,0.802288905786883,0.333673775821898,0.45582634313393
i,1.4619836807251,0.0461992904199986,-0.0534692768563982,-9.80710241994262,0.000580280728172511,0.555532574653625,-0.00203417241573334,-0.192930022897468,0.802277610431482,0.333675208814747,0.455839408656968
i,1.47198224067688,0.0393864868663019,-0.0527014799548313,-9.81345032766461,-0.00102026876993477,0.551912367343903,-0.00246097589842975,-0.192925060106055,0.802278474441876,0.333677969433325,0.45583788083371
i,1.48198270797729,0.0322007766132941,-0.0535524342283607,-9.80753379709721,0.000646595202852041,0.553698599338531,-0.00360367354005575,-0.192934406169713,0.802266694397717,0.333702393532037,0.455836795552361
i,1.49198508262634,0.0254624950339552,-0.0539995021424256,-9.80907225871086,0.000612179283052683,0.549995362758636,-0.00186264514923096,-0.192947461156039,0.802261721069593,0.33372211825714,0.455825679321066
i,1.50198340415955,0.0233380593590438,-0.0594366288621677,-9.80270798437595,-0.000237837695749477,0.550719022750854,-0.00317614804953337,-0.19294949474148,0.802260983499744,0.333740304622272,0.455812729701861
i,1.51198387145996,0.0307453559238813,-0.0626827255107695,-9.80685808979273,0.00121309678070247,0.553207278251648,-0.00260517979040742,-0.192962686705064,0.802253123112497,0.333749176533884,0.455814584163196
i,1.52198624610901,0.0378878458063817,-0.0653844587501371,-9.80716788639426,-0.000550292490515858,0.549812078475952,-0.00254429923370481,-0.192959314957183,0.802260203783047,0.333761904882134,0.455794100794819
i,1.53198456764221,0.046177069455036,-0.0644271808581892,-9.81402666624784,0.00081068609142676,0.553647220134735,-0.00318271806463599,-0.192971937938312,0.802248697693403,0.333774001027657,0.455800106720732
i,1.54198479652405,0.04965899785324,-0.0605644410154317,-9.81161960510611,-9.5587529358454e-05,0.551307737827301,-0.00231042923405766,-0.192974835534147,0.802250341420495,0.333782472544207,0.455789833426407
i,1.55198740959167,0.0491334670086391,-0.0566684336573118,-9.81125252535939,-0.00060073024360463,0.552986204624176,-0.00191019778139889,-0.192969345907128,0.802252764864284,0.333768838038714,0.455797894011185
i,1.56198596954346,0.0461643926365534,-0.0560087322061416,-9.80975731836557,0.000103042111732066,0.551152110099792,-0.00167665781918913,-0.192963645545867,0.802261447115078,0.333757289802222,0.455793563422501
i,1.57198667526245,0.0379202867712593,-0.0526035086062271,-9.80537808036804,0.00049958482850343,0.553731858730316,-0.00218758964911103,-0.192966490458142,0.802258749716773,0.333754760991311,0.455798894998837
i,1.5819890499115,0.0309639511276036,-0.0546027058996959,-9.80859645789265,0.00112791266292334,0.550319850444794,-0.00231097266077995,-0.192957681766803,0.802265092817474,0.333756847260313,0.455789917720105
i,1.59198760986328,0.0251133345364127,-0.0548432868896518,-9.80285236128271,0.000699394440744072,0.554481744766235,-0.00247125560417771,-0.192964119697913,0.802257105989681,0.333764496913317,0.455795660228214
i,1.60198831558228,0.0220231659517507,-0.0592733234926592,-9.80401965149641,-0.00101034925319254,0.54941713809967,-0.00229424075223505,-0.192961253712214,0.802260730618653,0.33377688808678,0.455781498887115
i,1.61199045181274,0.0305106795183266,-0.0621270369899226,-9.8082539280653,7.76331289671361e-05,0.553120076656342,-0.0027370669413358,-0.192966364017596,0.802258433615409,0.333783736949663,0.455778243043067
i,1.621994972229,0.0387676151824417,-0.0653632241658633,-9.80960768076181,0.000191848404938355,0.553167343139648,-0.00356215611100197,-0.192968271162491,0.802251795486769,0.33377857396072,0.455792983903334
i,1.63199520111084,0.0485510457444936,-0.0695489762847545,-9.81729297456741,0.000795838423073292,0.550684571266174,-0.00316164875403047,-0.192961654107275,0.802261468188502,0.333778595034144,0.455778696121689
i,1.64199781417847,0.0502895051759668,-0.065131433837139,-9.81533015006185,0.00056107621639967,0.552608966827393,-0.00187028979416937,-0.192963582325594,0.802263449090382,0.33376371719662,0.455785323713617
i,1.65199637413025,0.0527404876578134,-0.0606663944194093,-9.81155180056691,0.000496909953653812,0.550045132637024,-0.00200119754299521,-0.192956027502999,0.802271435918175,0.333759439291496,0.455777579230203
i,1.66199660301208,0.0488118110059528,-0.0555090801548911,-9.81284125585556,0.000197694811504334,0.554741144180298,-0.00198719836771488,-0.192960790096881,0.802266399369778,0.333753939127765,0.455788495263967
i,1.67199921607971,0.0384972509755753,-0.0534249125582864,-9.80386007702053,6.11906580161303e-06,0.550020635128021,-0.00266404426656663,-0.192952455557588,0.802273100718691,0.333754402743099,0.455779928917007
i,1.68199753761292,0.0312320548787247,-0.0520387188968947,-9.80505074810982,-0.000172230778844096,0.552355706691742,-0.00175457331351936,-0.19295528993315,0.802271456991599,0.333753770540371,0.455782067869569
i,1.69199776649475,0.0209779334984254,-0.0570671506513143,-9.80705332010388,-0.000113945767225232,0.550620198249817,-0.00287606613710523,-0.19295202355239,0.802271962753781,0.333761104092012,0.455777115614869
i,1.70200037956238,0.0246659469619393,-0.0597932420138037,-9.80490578668118,0.000224181814701296,0.552406549453735,-0.00307551049627364,-0.192944026187885,0.802277336476966,0.333753032970523,0.455776894343915
i,1.71199870109558,0.0268529675782425,-0.0622372010998195,-9.81249638794064,0.000803979695774615,0.549125373363495,-0.00319269695319235,-0.192931139788953,0.802290612734247,0.333743465635911,0.455766009920287
i,1.72199892997742,0.034416283538565,-0.0668920959672658,-9.80475731812119,-0.000867646303959191,0.551999151706696,-0.00311679090373218,-0.192921498697356,0.802296007530857,0.333732507455298,0.455768738928728
i,1.73200154304504,0.0425827484572306,-0.0658227634024341,-9.81099650477171,0.000435649475548416,0.551426351070404,-0.00244476483203471,-0.192922731492675,0.802296028604281,0.333729451808781,0.455770245678562
i,1.74200010299683,0.0480743407439906,-0.0629954675546382,-9.81162545032501,-8.77847487572581e-05,0.552046775817871,-0.0027920501306653,-0.192922257340629,0.802296576513311,0.333729578249326,0.455769497572001
i,1.75200057029724,0.0498637403448345,-0.0587061865626136,-9.81084336003661,-0.000525574316270649,0.552441418170929,-0.00192851212341338,-0.19292656685589,0.802290423073429,0.333733118584601,0.455775893356263
i,1.76200294494629,0.0466154745720327,-0.0530980689238291,-9.80778631055355,-0.000112171517685056,0.549892246723175,-0.00259112054482102,-0.192924607027434,0.80229493278622,0.333743107387698,0.455761542354345
i,1.77200150489807,0.0389526300602593,-0.0515043973910622,-9.81221231030226,-0.000481468683574349,0.553189933300018,-0.00119737745262682,-0.192936460828578,0.802286292682275,0.333746942750913,0.455768865369273
i,1.78200149536133,0.0306910364873358,-0.0531031789237866,-9.80641151506901,0.000256735773291439,0.551830351352692,-0.00262334733270109,-0.192939168763594,0.802283194888909,0.3337663935215,0.455758866029464
i,1.79200387001038,0.0255343113112845,-0.0557340799832251,-9.80074282178283,-0.00048112595686689,0.554662466049194,-0.00233226269483566,-0.192930549733074,0.802281213987029,0.333746795236943,0.45578033984878
i,1.80200266838074,0.0266907855867408,-0.0596825162149034,-9.80571008880138,-0.000195543339941651,0.550645291805267,-0.00220431433990598,-0.192913206304912,0.80229562820922,0.333725553225293,0.455777874258143
i,1.81200289726257,0.0318463965179399,-0.0641213297794107,-9.8090418635726,0.000123540492495522,0.554782390594482,-0.00277838762849569,-0.192913153621351,0.802295227814159,0.33371474255865,0.455786524898799
i,1.8220055103302,0.0411223753147759,-0.0645511679974617,-9.81410031600594,-1.10535765998065e-05,0.548577487468719,-0.00157255074009299,-0.192910529980031,0.802305890966832,0.333706355335797,0.45577498719902
i,1.8320038318634,0.0492028241841122,-0.0642013818788342,-9.80851813195944,6.48568966425955e-05,0.55599707365036,-0.00169606506824493,-0.19291601960705,0.802303931138377,0.333694406704244,0.455784965465404
i,1.84201002120972,0.0513100210298551,-0.0642801188040059,-9.80551602753401,-0.000442890857812017,0.552308976650238,-0.0013672539498657,-0.192914312659685,0.802308251190349,0.333678285534688,0.455789833426407
i,1.85201263427734,0.0538607603920158,-0.0609564451408572,-9.80933295547366,-3.76235257135704e-05,0.551091969013214,-0.00230978801846504,-0.192909592212652,0.802313814574352,0.333675672430081,0.455783890720768
i,1.86201119422913,0.047735624008649,-0.0549838096051943,-9.80999697234035,0.000672532361932099,0.554504632949829,-0.00255791004747152,-0.192920086777931,0.802303804697831,0.333670762322229,0.45580079160702
i,1.87201189994812,0.0393598682874348,-0.0540636031874688,-9.81352865359783,-0.000692376983352005,0.552301049232483,-0.00315760215744376,-0.192912026193154,0.802306312435318,0.333671120570442,0.455799411297732
i,1.88201427459717,0.0309374467131682,-0.0525155974273337,-9.81354268212318,0.00106394570320845,0.554193735122681,-0.00247890967875719,-0.192923848384161,0.802295164593886,0.333675187741323,0.455811022754496
i,1.89201283454895,0.0258310201023822,-0.0544481363924919,-9.80754081135988,0.00023720768513158,0.550502181053162,-0.0029918069485575,-0.192920803274356,0.802295354254705,0.333685703380026,0.455804289795447
i,1.90201354026794,0.023082721474662,-0.0601043674893212,-9.80493033660054,0.000469643011456355,0.553873479366302,-0.00217901589348912,-0.192914196755852,0.802302793173467,0.333659804141616,0.455813003656376
i,1.91201591491699,0.0280649828496622,-0.065982780836313,-9.80394600173831,0.000582354725338519,0.550622820854187,-0.00248365104198456,-0.19289472491184,0.802322876146782,0.333634832133874,0.455804152818189
i,1.9220142364502,0.0387510704730172,-0.0651751359815476,-9.80525240816176,-0.000267740630079061,0.554827153682709,-0.00261493236757815,-0.19288586353694,0.802327680887513,0.333603643465976,0.455822286499761
i,1.93601703643799,0.0517276984526543,-0.0655549153796397,-9.81547511149049,-0.000494432693812996,0.549721002578735,-0.000895218108780682,-0.192864969236791,0.802352547528134,0.333573129147654,0.455809716202193
i,1.94702076911926,0.0512429471430136,-0.0610438083304791,-9.81635657050013,-0.000978669850155711,0.55456668138504,-0.00292991800233722,-0.192885652802698,0.802331200149363,0.333603917420491,0.455815964472484
i,1.95702028274536,0.0494853400530759,-0.0570928650478832,-9.80625603224635,0.000336536322720349,0.549255967140198,-0.00179502693936229,-0.192903607360163,0.802324857048662,0.333641364895393,0.455792235796773
i,1.96702194213867,0.0449907183478353,-0.0531658049643738,-9.80518285005689,-4.6431872760877e-05,0.554694354534149,-0.00127068138681352,-0.192907442723378,0.802318008185779,0.333625791634868,0.455814025717453
i,1.97702574729919,0.0330115016244235,-0.0495365496505052,-9.80685575170517,-0.000633311166893691,0.5512775182724,-0.00348010077141225,-0.192884894159425,0.802329514275423,0.333609143629706,0.455815543003999
i,1.98702478408813,0.0247341145440354,-0.0525755976859946,-9.80785879126787,-0.000655240844935179,0.552581310272217,-0.00176539376843721,-0.19286853064549,0.802339482005096,0.333587711957239,0.455820484721987
i,1.99702620506287,0.022761515279836,-0.0572062440281734,-9.80861633163691,-0.000967283383943141,0.550125539302826,-0.00332316942512989,-0.192847014679325,0.802349091486556,0.333572117623289,0.455824130424383
i,2.00702953338623,0.0274309295796906,-0.0602119560496416,-9.8064120995909,-0.000956908508669585,0.552465200424194,-0.00290042441338301,-0.192830651165391,0.802362304523564,0.333543310252332,0.45582881926128
i,2.01702928543091,0.0357777994164266,-0.0645602098204428,-9.80942414088845,0.000215296109672636,0.551830112934113,-0.0019574195612222,-0.192812675534501,0.802378046371483,0.333500088659184,0.455840388571196
i,2.02703046798706,0.040833384039253,-0.0663160679112887,-9.80380279387534,0.0012658650521189,0.553386569023132,-0.00332597410306334,-0.192796196116733,0.802391027600824,0.333470332984136,0.455846246983139
i,2.03703379631042,0.0505979866032489,-0.0659929962696508,-9.80897873520851,0.00123530684504658,0.553561270236969,-0.00234876875765622,-0.192798914588462,0.802390521838642,0.333452884188852,0.45585882781742
i,2.0470335483551,0.0529253609717358,-0.0604739679866936,-9.81312533349395,0.000423888675868511,0.550529658794403,-0.0014800513163209,-0.192791001517654,0.802402997305802,0.333436699799024,0.455852158078643
i,2.05704069137573,0.0471822279095883,-0.0562611771638272,-9.81170494530201,0.000448141392553225,0.554055452346802,-0.00163581676315516,-0.192774058484553,0.802412206392201,0.333397229275394,0.455871798510049
i,2.06704425811768,0.0419160190436523,-0.0532862393065356,-9.81146529132724,-0.000149589381180704,0.551640808582306,-0.00177182990591973,-0.192750340345554,0.802432415806062,0.333361172646492,0.455872673057156
i,2.07704377174377,0.0335534698638832,-0.0517640210082056,-9.80937387200594,-2.51280143857002e-05,0.554096519947052,-0.0022453204728663,-0.192745946536596,0.802433427330426,0.333344988256664,0.455884653298845
i,2.08704519271851,0.0292638692114502,-0.0527482143065426,-9.81535469998121,0.0003464266192168,0.550995886325836,-0.00250524515286088,-0.192731816805633,0.802441414158219,0.333339193064994,0.455880828472343
i,2.09704852104187,0.0234163122270256,-0.0571801551722689,-9.80865491008162,9.64111386565492e-05,0.553773164749146,-0.00347308628261089,-0.192717918882337,0.802445755283616,0.333321533535468,0.45589186040994
i,2.10704803466797,0.0278478763501276,-0.0624134618490236,-9.81217256281376,0.000725098419934511,0.54975426197052,-0.00337131856940687,-0.192698520795309,0.80246602791775,0.333298647796727,0.455881081353434
i,2.1170494556427,0.0369448841341538,-0.0614892642427701,-9.81506243903637,0.000569472555071115,0.554298341274261,-0.00266983453184366,-0.192691598175442,0.802468978197145,0.333284486455627,0.45588918408506
i,2.12705302238464,0.0453475415620254,-0.0643251589555526,-9.80766823713183,-0.000953292241320014,0.552387416362762,-0.00214644335210323,-0.192692072327487,0.802468029893054,0.333279955669412,0.455893978289078
i,2.13705205917358,0.0508227398364106,-0.0623458171400241,-9.80708956046104,0.000421293429099023,0.551432728767395,-0.00104286544956267,-0.192690892215729,0.802476543556453,0.333273886523226,0.455883947339132
i,2.14705348014832,0.0503708496167557,-0.0590631878733169,-9.81022376683354,-0.00130655954126269,0.553795516490936,-0.00175423198379576,-0.19267727878366,0.802483202758518,0.333232498317989,0.455908181777026
i,2.15705680847168,0.0500064276179997,-0.0552570553223137,-9.81143489618897,-0.000117550138384104,0.551597893238068,-0.00190878054127097,-0.192657448691436,0.802501368050226,0.333205397894396,0.455904493927781
i,2.16705656051636,0.0411129818653455,-0.0524268048990285,-9.80850527247786,-0.000635234697256237,0.552097916603088,-0.00244874251075089,-0.192634057190512,0.802512747699324,0.333173787758013,0.455917348716577
i,2.17705798149109,0.0315547954435111,-0.0531087912472431,-9.80790087684393,0.000432479515438899,0.549132406711578,-0.00250274827703834,-0.192607588969647,0.802536371007914,0.333145781177178,0.455907528500874
i,2.18706107139587,0.0244662779376842,-0.0539448265128536,-9.80708371524215,0.000208682322409004,0.553075313568115,-0.00312129873782396,-0.192597726607096,0.80254130218919,0.333127447298075,0.455916295045364
i,2.19706082344055,0.0223763290542644,-0.055582250422379,-9.80761563016176,-4.0525286749471e-05,0.549023509025574,-0.00164183345623314,-0.19258145792357,0.802554388785653,0.333115372225977,0.455909130081118
i,2.20706224441528,0.0253051536143525,-0.0608074377247598,-9.80840590375662,-0.000380035169655457,0.55351847410202,-0.00286346301436424,-0.192565241923606,0.802559214599807,0.333100262580786,0.455918518291623
i,2.21706557273865,0.0333573148208321,-0.0646112047887407,-9.80964392111897,0.000769948237575591,0.549671947956085,-0.00237172655761242,-0.192553240608492,0.802573354867483,0.333078282999287,0.455914588098
i,2.22706508636475,0.0443208790951408,-0.0652454978040187,-9.81036171399951,0.000723922625184059,0.552669823169708,-0.00241933367215097,-0.192537561980846,0.80258814841131,0.33304764224042,0.455917538377396
i,2.2370662689209,0.0517907080857316,-0.0643307941118954,-9.80785294604897,0.00141321413684636,0.550695598125458,-0.00266301818192005,-0.192518437848335,0.80260469104935,0.332995190487448,0.455934808048573
i,2.24507164955139,0.0532562094944529,-0.0622442153624957,-9.81149919359684,0.000625647488050163,0.551689386367798,-0.0017365615349263,-0.192498997614459,0.802626312382636,0.33295409731015,0.455935113613225
i,2.25507307052612,0.0488917306746356,-0.0594825731960125,-9.81804466971755,-0.000589761708397418,0.551878869533539,-0.00311044999398291,-0.192494867223305,0.802622203064907,0.332949355789693,0.455947378346141
i,2.26508283615112,0.0441913298647618,-0.0552258016675245,-9.81027637380362,5.52346318727359e-05,0.551669538021088,-0.00214077183045447,-0.192488397682058,0.802629873791336,0.332949102908601,0.455936904854286
i,2.2750883102417,0.0342203157251817,-0.0529602678883355,-9.80517934292555,7.25230202078819e-05,0.553420782089233,-0.00261749606579542,-0.192482507659979,0.802630927462548,0.332926722932042,0.455953795203827
i,2.28508973121643,0.0254820536843734,-0.0541029762166319,-9.80352923763096,0.000895617355126888,0.549964010715485,-0.00345206400379539,-0.192463214940073,0.802648165523589,0.332917914240703,0.455938148186317
i,2.29509305953979,0.0251524495539605,-0.0577491369995289,-9.80372972863912,6.4923515310511e-05,0.554900705814362,-0.00235496484674513,-0.19246062290889,0.802644309086951,0.332902467420724,0.455957346075814
i,2.30509853363037,0.0271512975042686,-0.0594434239291353,-9.80461586382389,0.000387322477763519,0.554358541965485,-0.00391594832763076,-0.192457019353342,0.802645931740618,0.332892752572142,0.455963014826939
i,2.31510019302368,0.0332229204519768,-0.0655065553264227,-9.80691888006925,0.000192974286619574,0.55477112531662,-0.00261325319297612,-0.192445808291638,0.802655878396867,0.3328628283097,0.455972118546217
i,2.32510375976562,0.042355428807647,-0.0631630974728148,-9.81094506684542,0.000659933080896735,0.550212562084198,-0.00154083396773785,-0.192427769440475,0.802675392387727,0.332824853999191,0.455973087923733
i,2.33510899543762,0.0488549286284717,-0.0670335776640335,-9.80921020587683,-0.000316929712425917,0.555275797843933,-0.00153058452997357,-0.192413239314451,0.80268620305437,0.332780831615922,0.455992296349942
i,2.34511065483093,0.0544448027910897,-0.0619660377419321,-9.81220178890824,0.000352894654497504,0.551952719688416,-0.00178863515611738,-0.192392998290454,0.802701270552713,0.332735839855136,0.456007058283633
i,2.3551139831543,0.0479260365807917,-0.0575308089405764,-9.81474796625972,0.000315038487315178,0.552952170372009,-0.00154188298620284,-0.192371197833062,0.802719941606603,0.332691712104745,0.456015708924289
i,2.36511945724487,0.0440064017519122,-0.0534796064541675,-9.81281319880486,0.000655657844617963,0.553183794021606,-0.00267738080583513,-0.192354644658309,0.802730288657913,0.332660038748089,0.45602749950516
i,2.3751208782196,0.0340452537025092,-0.0510214179133996,-9.8100788054049,0.00137538567651063,0.551426768302917,-0.00392741849645972,-0.192330241633021,0.802747737453196,0.332640145435592,0.45602155679952
i,2.38512420654297,0.0288650608859025,-0.0523567490372341,-9.80258581930101,1.84324308065698e-05,0.554595530033112,-0.00193724269047379,-0.19231434173442,0.80275582964811,0.332600611691689,0.456043062228973
i,2.39512944221497,0.0267837405502214,-0.0572472381922649,-9.80066098871827,3.05828871205449e-06,0.55047744512558,-0.00259091192856431,-0.192293236700029,0.802773973866394,0.3325741223974,0.456039300622743
i,2.40513062477112,0.0269858686763328,-0.0617073868057458,-9.80624843346178,0.000451451342087239,0.555234909057617,-0.0024139650631696,-0.192292088198407,0.802773383810515,0.332551953155083,0.456056844248436
i,2.41513419151306,0.0338084013228887,-0.0652611154982587,-9.80815689743161,-0.000667587853968143,0.550863444805145,-0.00337298586964607,-0.192276894259519,0.802782677190612,0.332543924180442,0.456052734930706
i,2.42513942718506,0.0420074693199247,-0.0674072104491293,-9.8100390579164,-8.73189710546285e-05,0.55364990234375,-0.0024824368301779,-0.192277558072383,0.802782972218551,0.33253039504207,0.456061807039848
i,2.43514060974121,0.0486971351177199,-0.0654102462119423,-9.81076035792828,-0.000168665661476552,0.552476227283478,-0.00141440075822175,-0.19227853798661,0.802783962669491,0.33252316685755,0.456064915369926
i,2.44514393806458,0.0502723257123027,-0.0607133205673657,-9.81259341857433,-0.000986641738563776,0.554270148277283,-0.002439548028633,-0.192275914345291,0.802783899449219,0.332515559351394,0.456071711549248
i,2.45514941215515,0.049950993936602,-0.0555181174112949,-9.8144825933218,0.000218794200918637,0.549690723419189,-0.00206869537942111,-0.192270698672787,0.802789736787737,0.332514273872515,0.456064536048289
i,2.46515107154846,0.0413636595576303,-0.0545443039430771,-9.80879402629137,-0.00106315652374178,0.552359163761139,-0.00180697406176478,-0.192264292351814,0.802793234976164,0.332508078285783,0.456065674013199
i,2.47516012191772,0.0350720280505368,-0.0533066108077066,-9.80467022435963,-0.000163800548762083,0.552377939224243,-0.00345551152713597,-0.19226892850515,0.802784552725371,0.332519036466396,0.456070942369263
i,2.48516631126404,0.0259624850119231,-0.0517275340558728,-9.80532488887608,-0.000223462266148999,0.551227331161499,-0.00249252351932228,-0.192267253167922,0.802786470406978,0.332528161259099,0.456061659525879
i,2.49516749382019,0.0222325069866492,-0.0577087456236361,-9.80804700731635,-0.000682145648170263,0.550704419612885,-0.00258821644820273,-0.192260341084766,0.802788050913797,0.33252118595567,0.456066927881942
i,2.50517082214355,0.0242322340030805,-0.063615859908727,-9.80842577750087,-0.000332410330884159,0.550410747528076,-0.00374596961773932,-0.192249519881411,0.802796374916378,0.332520616973215,0.456057139276376
i,2.51517605781555,0.0321124886917765,-0.0630916716378415,-9.8143352938056,0.000520418572705239,0.554844856262207,-0.00307726813480258,-0.192239942010087,0.802799177681804,0.332494380560017,0.456075357251645
i,2.5251772403717,0.0408009293746436,-0.0672216521486174,-9.81175521418452,-0.000298478291369975,0.552918255329132,-0.00204336876049638,-0.192226033550078,0.802813402243176,0.332458071050025,0.456082775096982
i,2.53518080711365,0.0506798151012277,-0.064026386071532,-9.81146412228346,-2.59712542174384e-05,0.553795456886292,-0.00201111286878586,-0.192222219260288,0.802816731844209,0.332434426668011,0.456095693106051
i,2.54518628120422,0.0499281884497497,-0.0618471560360398,-9.81229297432303,0.000275581638561562,0.551411867141724,-0.00210116966627538,-0.192212209383766,0.802825940930608,0.332419822785002,0.45609444977402
i,2.55518770217896,0.0485627864146372,-0.0590769469706109,-9.81163480267525,0.000514123472385108,0.554323077201843,-0.00346724572591484,-0.192202684196003,0.802828490814943,0.33240614613266,0.456103848521238
i,2.56519103050232,0.0426229343371466,-0.0513657287058886,-9.80997826763988,-0.000191522034583613,0.551198065280914,-0.003141701919958,-0.192186605173296,0.80283664623013,0.332383239320494,0.456113015460789
i,2.5751965045929,0.0334248750481522,-0.0510280896827811,-9.80842694654465,-0.00172704923897982,0.550801873207092,-0.00245275115594268,-0.192163234745797,0.802854116098838,0.33235632855772,0.456111687835061
i,2.58519792556763,0.027975080643082,-0.0508522307923762,-9.80735376435518,-0.000494237814564258,0.551630556583405,-0.0040208357386291,-0.19213680867178,0.802865032132602,0.332322821813154,0.456128082959132
i,2.59520149230957,0.0250574213644024,-0.0556510413422715,-9.80380220935345,-0.000232180202146992,0.552551031112671,-0.00393805047497153,-0.192110456354749,0.802880457879157,0.33228868286586,0.456136860040334
i,2.60520696640015,0.0285610684040701,-0.0599602737103589,-9.80588719893396,-0.000954227638430893,0.554116308689117,-0.00231383508071303,-0.192105156388549,0.802881743358037,0.332264132326602,0.456154635473694
i,2.61520838737488,0.0367354974334827,-0.0623643939763308,-9.80547920265496,-0.000418000970967114,0.549962520599365,-0.0026639502029866,-0.192084715167021,0.802897190178016,0.332248011157047,0.456147807684235
i,2.62521171569824,0.0430119473544648,-0.065011341988272,-9.8074776829958,0.000580283463932574,0.553362309932709,-0.00218725809827447,-0.192078256162487,0.802904860904445,0.332211006224054,0.456164002610775
i,2.63521718978882,0.048328151108278,-0.064297905622446,-9.80933178642988,0.000830270349979401,0.55119800567627,-0.00300810555927455,-0.19205905827299,0.80291900117212,0.332181440209824,0.456168701984384
i,2.64521837234497,0.0510591789407888,-0.0601098976143869,-9.80928853181005,0.000217873079236597,0.552619457244873,-0.00284035503864288,-0.192041324986479,0.80292934822343,0.332154993062383,0.456177331551617
i,2.65522146224976,0.0488782638382865,-0.0564469500934705,-9.81154946247935,-0.000354142423020676,0.549891531467438,-0.00211869506165385,-0.192025351330893,0.802943404197408,0.332133350655673,0.456175055621797
i,2.66522645950317,0.0429531709385104,-0.0521655007814523,-9.81132383702993,-8.36983672343194e-05,0.551552355289459,-0.00240144529379904,-0.192009209087914,0.802955373902385,0.332111771469236,0.456176446467798
i,2.67522716522217,0.0344519074077951,-0.051979312293278,-9.80701707974672,-0.000452072796178982,0.552754163742065,-0.00160919094923884,-0.191991359897569,0.802966353156422,0.332080477434216,0.456187467868684
i,2.68523025512695,0.0264429505888023,-0.0518065130096395,-9.80369933350086,-0.000500429247040302,0.552271485328674,-0.0036886993329972,-0.191963901225765,0.802980535570946,0.33205221797229,0.456194527465809
i,2.69524145126343,0.0245066556138452,-0.0569266188026173,-9.80439374550581,-0.00119073374662548,0.551785886287689,-0.00322967860847712,-0.191939498200477,0.802994275443561,0.332009143893111,0.456212018407941
i,2.70524263381958,0.0260034837425919,-0.0603397654140834,-9.80607483046055,3.34207579726353e-05,0.549852311611176,-0.00322019075974822,-0.191910216677474,0.803019584626092,0.33197026342536,0.456208088214317
i,2.71524596214294,0.0331306801578379,-0.0661621148920152,-9.81054876100421,0.000348492729244754,0.551549315452576,-0.00338248419575393,-0.191925663497453,0.803007846728781,0.331988744818432,0.456208867931015
i,2.72525143623352,0.0422789203721797,-0.0671905811569188,-9.81628642787337,-0.00073852005880326,0.551576852798462,-0.00289297057315707,-0.191929951939289,0.80300546543184,0.332008912085445,0.456196487294265
i,2.73525285720825,0.0524547066861065,-0.0645837961920071,-9.81058967753649,-0.000321024534059688,0.554332971572876,-0.00275151384994388,-0.191927117563727,0.803006582323326,0.331978208106304,0.456218077017415
i,2.7452564239502,0.0540365781832254,-0.0584534813100239,-9.80544471586347,-0.00066450925078243,0.551570415496826,-0.00207101739943027,-0.191905074761955,0.803025316597489,0.331943120854919,0.456219931478749
i,2.75526189804077,0.0477361582981888,-0.0557363678384339,-9.80540146124363,-0.000414872512919828,0.553638696670532,-0.000919799203984439,-0.191895317766525,0.80303334557213,0.331910731001839,0.45623335525
i,2.7652633190155,0.0416195568477269,-0.0515840750311501,-9.80077321692109,0.000528164790011942,0.549613475799561,-0.00175417028367519,-0.191881662187608,0.803046874710503,0.33189172277316,0.456229224858846
i,2.77526640892029,0.0335742135411012,-0.0511587485914351,-9.80883494282365,0.000101940677268431,0.554808557033539,-0.00325616099871695,-0.191863454749051,0.803050351825505,0.331871471212451,0.456245409248674
i,2.78527140617371,0.0271981528702774,-0.0551776060110889,-9.80738182140589,0.000570721225813031,0.551302433013916,-0.00291528110392392,-0.191851727388453,0.803059181590268,0.331850840330104,0.456249803057631
i,2.79527235031128,0.0249659025894711,-0.0580072764790617,-9.80428268634677,-8.22712318040431e-05,0.551192998886108,-0.00314095709472895,-0.191829969077909,0.803074986658459,0.331832422157305,0.456244503091431
i,2.80527520179749,0.0284081771140103,-0.0609295571339317,-9.80650153144002,-0.000317150435876101,0.551908552646637,-0.00330679956823587,-0.19181516499737,0.803084195744859,0.331802813996226,0.456256146158332
i,2.8152801990509,0.0350187680599163,-0.0637238731607329,-9.80567794009745,0.000264883798081428,0.550431370735168,-0.00183763133827597,-0.191796104085131,0.803103772955992,0.331774807415391,0.456249961108313
i,2.82528114318848,0.0452831208565738,-0.0635442696769722,-9.81158453379273,0.000492235762067139,0.551569521427155,-0.00101459107827395,-0.19178302802538,0.80311841898585,0.331735126157518,0.456258696042667
i,2.83528423309326,0.0516643052270869,-0.0607367242758395,-9.8084070728004,0.000429322652053088,0.548259437084198,-0.00217358442023396,-0.191757213080667,0.803141136137197,0.331708615789805,0.456248770459843
i,2.8452889919281,0.0533473492434714,-0.0591203157548793,-9.8120568274796,-0.000412619207054377,0.552758693695068,-0.0016669750912115,-0.191741007617415,0.803151525335355,0.331666026399384,0.456268347670976
i,2.85529017448425,0.0504857538338518,-0.0546209493758623,-9.80948843829632,-0.000596810423303396,0.549436807632446,-0.00096243602456525,-0.191716488688293,0.803174537514642,0.331625649718511,0.456267452050445
i,2.86529397964478,0.0435011967427097,-0.0514168835043907,-9.80507062185407,0.0010064912494272,0.55424827337265,-0.00203233491629362,-0.191709028696107,0.803178815419766,0.331596420879069,0.456284184349304
i,2.87529921531677,0.0335035640242626,-0.0497345107748639,-9.80404127880633,0.000179756985744461,0.549072265625,-0.00297636049799621,-0.191684699427804,0.803194241166321,0.331580405076634,0.456278926529952
i,2.88830327987671,0.0263515825109207,-0.055409583569481,-9.80828315415978,0.000935684482101351,0.553806602954865,-0.00207501812838018,-0.191679915760498,0.803199699183203,0.331552609230042,0.456291507364233
i,2.89830327033997,0.0217970906944713,-0.0586911899228813,-9.8089623685956,2.41437828663038e-05,0.548882663249969,-0.00358297605998814,-0.191652868020466,0.803220308992125,0.331539417266458,0.456276281815208
i,2.90831160545349,0.0276885918518994,-0.0598163123621372,-9.81226491727233,-0.00125609361566603,0.550493359565735,-0.00398422032594681,-0.191643753764476,0.803224144355339,0.331542325399005,0.456271234730099
i,2.92831635475159,0.0462246988558909,-0.0660998907102272,-9.81448726949692,-0.000233403581660241,0.554365992546082,-0.00289360736496747,-0.191660306939228,0.803211331713392,0.331562303005199,0.456272256791175
i,2.99833297729492,0.0230560366804246,-0.0580107607775135,-9.8094101123631,-0.000547552073840052,0.55323052406311,-0.00260214996524155,-0.191582008631407,0.803270969504035,0.33143320720821,0.456293951881446
i,3.0083372592926,0.0272440538216382,-0.0620989114405587,-9.81068787721395,0.000535032420884818,0.549490511417389,-0.00291596469469368,-0.191564981304609,0.80328510977171,0.331417381066594,0.456287798441564
i,3.01833772659302,0.032581480743282,-0.0645468160493299,-9.8141365563631,-0.000102927100670058,0.554647505283356,-0.00295542879030108,-0.191564654666533,0.803281190114799,0.331405537802163,0.456303424385649
i,3.02833986282349,0.0458574273129227,-0.0619994787872303,-9.81576737243533,-7.8910990851e-05,0.550456941127777,-0.00261955545283854,-0.191567330991413,0.803282117345466,0.331414978696229,0.456293709537067
i,3.03834390640259,0.0509590156350983,-0.0618310268851463,-9.81294062457681,0.00228314474225044,0.553969740867615,-0.00209926511161029,-0.191585496283122,0.80327817661513,0.331418329370686,0.456290548523429
i,3.06835055351257,0.043811815328151,-0.0517416721790796,-9.80283248753846,0.00103553605731577,0.551768898963928,-0.00138225045520812,-0.191584242414378,0.803286711351954,0.331388384034819,0.456297745097812
i,3.07835078239441,0.0338928647359484,-0.0504837719393196,-9.80281202927232,0.000196027438505553,0.553139388561249,-0.00199643056839705,-0.191569438333839,0.803294297784686,0.331375655686568,0.456299947270647
i,3.08835291862488,0.0250596772535704,-0.0562731233299477,-9.80292484199703,-2.59843072853982e-05,0.554587125778198,-0.00345489056780934,-0.191572694177886,0.803285320505953,0.331375276364932,0.456314645984065
i,3.12836933135986,0.0435842901825905,-0.0658469890948152,-9.81270097060204,-0.000240808469243348,0.554852664470673,-0.00237863906659186,-0.19156508667173,0.803305045231056,0.331356310283102,0.456297007527963
i,3.13837504386902,0.0518256515349494,-0.0618392923899926,-9.81589713629484,0.000245721050305292,0.550213634967804,-0.00174180627800524,-0.191561103794546,0.803314760079638,0.331349967182401,0.456286028273926
i,3.14837741851807,0.0529380469233729,-0.0613796389889903,-9.81135189408064,0.000469337363028899,0.554922819137573,-0.00263219489715993,-0.191558216735423,0.803314212170607,0.331329947429358,0.456302865939906
i,3.16838216781616,0.0408321967291646,-0.053137021827884,-9.80545582177937,-0.000499295070767403,0.551843822002411,-0.00196262658573687,-0.191499643152705,0.803360405116575,0.331232588209298,0.456316679569506
i,3.18838787078857,0.0242159610050032,-0.0541307364398148,-9.80264251792431,-0.000336200231686234,0.551682829856873,-0.00306011061184108,-0.191451427158008,0.803388432770835,0.331167892796834,0.456334507686426
i,3.19838809967041,0.0226320048653637,-0.0572623078972334,-9.81065280590057,-0.000433144858106971,0.554474472999573,-0.00332852988503873,-0.191422777837733,0.803398737675296,0.331124629056838,0.456359827405669
i,3.20839047431946,0.0272400512166671,-0.0628142749019898,-9.80758640406728,-0.00135740614496171,0.551442921161652,-0.00308793876320124,-0.191392663914472,0.803422908892917,0.331082587575448,0.456360354241275
i,3.21839451789856,0.0368417890858604,-0.0645005885876948,-9.80774539402127,-0.000248978845775127,0.555499970912933,-0.00216293358244002,-0.191382991212739,0.803425564144373,0.331043095978393,0.456388529409505
i,3.2283947467804,0.0429683548079105,-0.0661858702269383,-9.80887936648726,-0.00036415463546291,0.550402402877808,-0.00197883928194642,-0.191362023155605,0.803445141355506,0.331012054824465,0.456385347322442
i,3.24640274047852,0.0528546657891246,-0.0587918783849571,-9.80938790053129,1.88909689313732e-05,0.549714803695679,-0.00220723100937903,-0.191326430142037,0.80347348511113,0.330941901395119,0.456401257757755
i,3.25640487670898,0.0504454355231952,-0.0541348143933108,-9.80957962371111,0.000685043807607144,0.551960706710815,-0.00247272104024887,-0.191310582926997,0.80348537052241,0.330917877691467,0.456404460918242
i,3.27641558647156,0.0338145136865554,-0.0517162043776829,-9.80703461540341,-0.000458505033748224,0.552720546722412,-0.00274249794892967,-0.191293787407866,0.803490891759565,0.330902072623276,0.456413164242459
i,3.28641748428345,0.0252240078196744,-0.053222115428606,-9.80883611186743,-0.000833291909657419,0.550755083560944,-0.00311755714938045,-0.191256771938161,0.803511754449578,0.330862412438827,0.456420676918206
i,3.29642152786255,0.0246771396428114,-0.0562772012834437,-9.81038860200644,-0.000280909967841581,0.551404893398285,-0.00372504838742316,-0.191225425219581,0.803532722506712,0.330822309712469,0.456425976884407
i,3.31642961502075,0.0364424624537933,-0.0656492882653605,-9.80629987138808,0.000950762594584376,0.550327360630035,-0.00204502209089696,-0.191193309321016,0.803559759710031,0.33075110261191,0.456443341385993
i,3.32643365859985,0.0414292630065931,-0.0688671680330532,-9.80824106858373,0.000916027638595551,0.551755368709564,-0.0023850176949054,-0.191180833853856,0.803574447886738,0.330716774003798,0.456447724658238
i,3.33643960952759,0.0516307956831297,-0.0638078890492208,-9.80598481408954,0.000366575695807114,0.549505770206451,-0.0022537054028362,-0.191162710708997,0.803591138038748,0.330691317307297,0.45644426861666
i,3.34644770622253,0.0518317250827095,-0.0588112635054393,-9.80260510852337,8.35954851936549e-05,0.552229821681976,-0.00182466092519462,-0.191153227668082,0.803598007975055,0.330664385471099,0.456455690412607
i,3.35645174980164,0.0472227608493762,-0.0577441822631983,-9.81222633882761,-0.000167781225172803,0.552168548107147,-0.00163681746926159,-0.191145999483562,0.803606142316818,0.33064537724242,0.456458113856396
i,3.36645770072937,0.0397368483736645,-0.0525033042013412,-9.81330069006085,9.85615188255906e-05,0.554115891456604,-0.00215495121665299,-0.191135979070329,0.803611263158912,0.330628202401652,0.456465731899265
i,3.37645983695984,0.0317391732838005,-0.0521568516841158,-9.81170962147713,-0.000459852366475388,0.55122047662735,-0.00213566282764077,-0.19111335674939,0.803625888115345,0.330600680509574,0.456469388138373
i,3.38646388053894,0.0251650624403614,-0.0545910245950567,-9.80815689743161,0.00127030210569501,0.552279412746429,-0.00318777398206294,-0.191102535546035,0.803637436351837,0.330581714427745,0.456467312406084
i,3.3964695930481,0.0235713269755128,-0.0589785189642804,-9.80935166017413,0.000421927776187658,0.552523255348206,-0.00209948839619756,-0.191095423265349,0.80364101883396,0.330568016701978,0.456473918924588
i,3.40647196769714,0.0278828197993455,-0.0637337598005077,-9.81215502715707,0.000279646163107827,0.552828550338745,-0.00318089220672846,-0.191087742002208,0.803646898319328,0.330553960728,0.45647704832809
i,3.41647624969482,0.0361362597485655,-0.0657862307843286,-9.80997943668365,0.000186623306944966,0.553285956382751,-0.00312565546482801,-0.191078827943748,0.803653030685786,0.330528777986015,0.456488238316369
i,3.47650027275085,0.0302102695163572,-0.0520602640084224,-9.8129862172842,0.000258245447184891,0.554414868354797,-0.00318653206340969,-0.190970942548272,0.803739621386052,0.330325187634283,0.456528182992046
i,3.48650646209717,0.0219721550004324,-0.0534256021114532,-9.80954805952907,-9.23395273275673e-05,0.550144374370575,-0.00320841884240508,-0.190948667938834,0.803755911143001,0.330304767486179,0.456523736499528
i,3.49650859832764,0.0255071561595891,-0.0572595862171845,-9.81003788887262,-0.000520654662977904,0.554344952106476,-0.0030670699197799,-0.190934148349522,0.803761558820702,0.330282766831257,0.456535685131081
i,3.50651264190674,0.0333299975556438,-0.0612050359073328,-9.81170845243335,-0.000205214513698593,0.551047325134277,-0.00230721640400589,-0.19092373807794,0.803772074459405,0.330262894592184,0.456536064452717
i,3.51651835441589,0.0407870561129181,-0.0670084660556633,-9.81017232890725,-0.000729371153283864,0.550721228122711,-0.00243452959693968,-0.190910577724492,0.803786320094202,0.330244012804051,0.456529921549547
i,3.52652049064636,0.0452841118038399,-0.0659396586472168,-9.81028221902251,0.000192360472283326,0.552774608135223,-0.00166573247406632,-0.190906141768687,0.803789881502901,0.330213983174487,0.456547254440997
i,3.53652453422546,0.0496753644661512,-0.0643939909746405,-9.80786463648677,0.000348366243997589,0.550894737243652,-0.00268296734429896,-0.190893487177421,0.803802040868696,0.330193225851595,0.456546169159648
i,3.54653024673462,0.0525958641558886,-0.0605420602202648,-9.8100051556468,0.000171167805092409,0.553170323371887,-0.0009861373109743,-0.190881654449702,0.803812830461915,0.330147117199324,0.456565504026402
i,3.55653238296509,0.0450358452643501,-0.0560126000970835,-9.80710008185506,0.000518105458468199,0.549727141857147,-0.0018018736736849,-0.19085490173761,0.80383816071787,0.330107119840088,0.456560941630051
i,3.56654214859009,0.0361318963839905,-0.0520216718639713,-9.8157065821588,0.000503958319313824,0.553672730922699,-0.00225777691230178,-0.190835398283461,0.803847390877694,0.330072854452248,0.456577705539046
i,3.57654809951782,0.027137449358718,-0.0510080972075229,-9.81067735581994,-0.000497486675158143,0.552131831645966,-0.00292864278890193,-0.190815726241919,0.803858327984883,0.330051802101417,0.456581867540336
i,3.58654975891113,0.0228892104798462,-0.0506184631356969,-9.81097896911502,0.000137567723868415,0.553391814231873,-0.00240369490347803,-0.190797392362816,0.803868211420858,0.330028431673918,0.456589032504583
i,3.59655356407166,0.0256775945227826,-0.0564541744187009,-9.81217139376998,0.000223462178837508,0.550964891910553,-0.0030445191077888,-0.190779079557138,0.803882541349352,0.330002553508932,0.456590191542917
i,3.60655975341797,0.0311797059202683,-0.0599825494742487,-9.81063527024388,5.12170372530818e-05,0.554216682910919,-0.00228659366257489,-0.190767921178995,0.803890886425357,0.329971364841034,0.456602614326516
i,3.61656188964844,0.0413745234449394,-0.0639200213539181,-9.81108301401138,0.000171983425389044,0.551762163639069,-0.00248594838194549,-0.190771798689058,0.803891434334388,0.32997005828873,0.456600886305727
i,3.62656545639038,0.048889429119695,-0.064678794698813,-9.81342694678903,0.000115699978778139,0.551921188831329,-0.00198024627752602,-0.190771366683861,0.803894721788572,0.329970395463518,0.456595164871042
i,3.63657164573669,0.0544050735689001,-0.0628014747859212,-9.81172715713382,-0.000160553885507397,0.553061604499817,-0.00130120874382555,-0.190770534283603,0.803899674043272,0.329941672386258,0.456607629801489
i,3.64657378196716,0.0528267594354693,-0.0584349273066036,-9.81154946247935,0.000812020734883845,0.550869941711426,-0.00154422363266349,-0.190760882655294,0.803913477136159,0.32992365460852,0.456600254102999
i,3.65657734870911,0.0433054778077872,-0.0555010840781033,-9.80683470891714,0.00106080342084169,0.55237752199173,-0.00157235795632005,-0.190757563590974,0.803917649674162,0.329901358925657,0.45661035880993
i,3.66658353805542,0.0365747082480462,-0.051036259289505,-9.80786229839921,0.00116392585914582,0.549653708934784,-0.00176317105069757,-0.19074323366248,0.803931916382383,0.329891475489682,0.456598431251801
i,3.67658567428589,0.0260962514764047,-0.0492335024501663,-9.80307623316646,0.00158290029503405,0.551698982715607,-0.00333513459190726,-0.190730220823002,0.803935414570809,0.329873225904276,0.456610811888551
i,3.68659019470215,0.0234668779370608,-0.0527780386226485,-9.80455448902547,-0.00017741578631103,0.5491743683815,-0.00374273373745382,-0.190697862580058,0.803955392177003,0.329842795879652,0.456611180673476
i,3.69659566879272,0.0216572712318273,-0.0590698048437713,-9.80262089061439,0.000174997476278804,0.556170642375946,-0.00349273486062884,-0.190691161231145,0.803955371103579,0.329813904214997,0.456634867202339
i,3.70659732818604,0.0283899336378439,-0.0622038194200257,-9.80659037876725,-1.32129644043744e-05,0.551175057888031,-0.00245446874760091,-0.190681920534609,0.803964748777373,0.329799553213079,0.456632601809231
i,3.71660089492798,0.0373270130362478,-0.0655483075423399,-9.80749521865249,-0.000207444783882238,0.5538290143013,-0.00226262374781072,-0.190682078585291,0.8039646855571,0.329782504812857,0.456644961372557
i,3.72660636901855,0.0476297159487614,-0.0651611485553905,-9.80679846855998,-0.000405616796342656,0.551395893096924,-0.00224116188474,-0.190665114478765,0.803980005936534,0.329742317792802,0.456654128312108
i,3.73660850524902,0.0528787636173423,-0.0607690373765537,-9.80903835644126,0.00088251440320164,0.551907896995544,-0.00271866261027753,-0.190648677207846,0.803998381962484,0.329710707656418,0.456651430913804
i,3.74661207199097,0.0506703303202521,-0.0582496384341502,-9.8076530395627,-0.00075797934550792,0.552195370197296,-0.00190102483611554,-0.190626581722514,0.804013091212615,0.329661437990509,0.456670323238649
i,3.7566180229187,0.0464837607840309,-0.0554636381445453,-9.80563234739006,-0.000773001636844128,0.553240716457367,-0.00208356627263129,-0.190597489860329,0.804030413567353,0.329617057359027,0.456684073647975
i,3.76662611961365,0.035992266434303,-0.0509414388792124,-9.81294763883948,-9.15414420887828e-06,0.554018139839172,-0.00212139682844281,-0.190571063786313,0.804045691799938,0.329563004025812,0.456707170120959
i,3.77663016319275,0.0268440581860021,-0.0545509757124586,-9.80431951122582,-7.9966353951022e-05,0.550426185131073,-0.00237810565158725,-0.19053549184617,0.804073993408713,0.329513881873873,0.45670771802999
i,3.78663611412048,0.0197116718556965,-0.0549668082380434,-9.80714567456245,-0.000218426852370612,0.552966475486755,-0.00360090658068657,-0.190500573182178,0.804094919318999,0.329453422219684,0.456728938968215
i,3.79663825035095,0.0204197082439088,-0.060436859979853,-9.8028698969394,0.000260771863395348,0.550743222236633,-0.0028222466353327,-0.190460881387593,0.804126213354018,0.329392119628525,0.456734660402901
i,3.80664205551147,0.0274258835118148,-0.0637620360469213,-9.81229998858571,0.000885186833329499,0.552648961544037,-0.00333822146058083,-0.190432263677454,0.804145769491727,0.329339183186795,0.456750465471092
i,3.81664800643921,0.0383212048555026,-0.0685111348367296,-9.80785411509275,0.000189088037586771,0.549701333045959,-0.00183386018034071,-0.190417807308415,0.804160289081039,0.32930662474632,0.456754342981155
i,3.8266499042511,0.0482098356579663,-0.0659162412390113,-9.81131799181104,0.000550124910660088,0.552208483219147,-0.00136079324875027,-0.190408724662561,0.804173101722986,0.329275436078422,0.456757988683551
i,3.83665370941162,0.0525052723961417,-0.0637305357969599,-9.80737831427455,0.000455265690106899,0.551900506019592,-0.00269381678663194,-0.190402012776936,0.804173839292835,0.329255732426743,0.456773635701061
i,3.84965682029724,0.0548245456565637,-0.0589279897868633,-9.81343629913926,0.00051156640984118,0.553503394126892,-0.00171348615549505,-0.190398504051797,0.804178896914656,0.329235080470973,0.456781106229959
i,3.85966181755066,0.0472320310012205,-0.053223658931721,-9.80716321021914,0.000973638438154012,0.550289630889893,-0.00157536764163524,-0.190390833325368,0.804186377980267,0.329219422916751,0.456782412782263
i,3.86966848373413,0.0360577557188342,-0.0539499273796566,-9.81035236164927,0.00118873664177954,0.553686141967773,-0.00343537493608892,-0.19037980138777,0.804190571591694,0.329207389991501,0.456788429244888
i,3.87967085838318,0.0251365761313937,-0.0545726806541905,-9.80701123452783,-0.000255459861364216,0.551969110965729,-0.00198342790827155,-0.190364217590534,0.804202625590368,0.329180163127363,0.456793223448906
i,3.88967537879944,0.02150279077288,-0.0563080439462792,-9.80415993674993,-0.000863388646394014,0.553657650947571,-0.00335981976240873,-0.190345514926507,0.804209432306403,0.329154558916893,0.456807458546991
i,3.89968204498291,0.0227305447528372,-0.0616404453496449,-9.80428619347811,-0.0014559990959242,0.553268432617188,-0.00335970823653042,-0.190328550819981,0.804216913372013,0.329125245783754,0.456822526045334
i,3.90968465805054,0.0307258178230608,-0.0629415865095099,-9.81259458761811,-0.0004609510069713,0.550891935825348,-0.00295004853978753,-0.190308499456802,0.804233751037994,0.329103940551831,0.45681661494983
i,3.91968941688538,0.0386098445045762,-0.0684735793053173,-9.81230934093595,0.000502451206557453,0.552637696266174,-0.00239559239707887,-0.19031824591552,0.804231622622144,0.329093172032037,0.456824022258456
i,3.92969584465027,0.0473081147450022,-0.0641067852308275,-9.81621160907149,0.00118596490938216,0.549014389514923,-0.00196332228370011,-0.190321638736825,0.80423823967736,0.329108724219137,0.456799682453441
i,3.93969869613647,0.0561592009269632,-0.0634086377656786,-9.80975264219046,-0.000940725323744118,0.554009258747101,-0.00167150236666203,-0.190324494185812,0.804235289397964,0.329095405815008,0.456813390715919
i,3.94970321655273,0.0533609211110976,-0.0560268660844536,-9.81199486815929,0.000402870151447132,0.54982590675354,-0.00153739517554641,-0.190311228465243,0.804249766840428,0.32907511210745,0.456807985382597
i,3.95970988273621,0.0502274408243829,-0.0554058389761252,-9.80947908594608,-9.49236855376512e-05,0.554697751998901,-0.00157754239626229,-0.19030135556598,0.804254466214037,0.329043017282309,0.456826962001139
i,3.96971273422241,0.0368101038895198,-0.049767047637864,-9.81007412922978,-0.000233260434470139,0.551865994930267,-0.00252775521948934,-0.190277036834389,0.804267573883924,0.329010774943198,0.456837287979025
i,3.97972345352173,0.0264810426930431,-0.0543040563132614,-9.80770213940144,0.000468403508421034,0.553346574306488,-0.00253434339538217,-0.190256827420528,0.804281229462841,0.328978911925724,0.456844516163544
i,3.98972988128662,0.0224058428431163,-0.055168774250662,-9.8108667409122,0.000448621634859592,0.550147652626038,-0.00350212072953582,-0.190256395415331,0.804279648956022,0.328992209256429,0.456838036085586
i,3.99973225593567,0.0228097862847964,-0.0580326392491814,-9.80621979188919,-1.19523610919714e-05,0.551803290843964,-0.00309273484162986,-0.190261316059894,0.80427771020099,0.329004853310982,0.456830207308475
i,4.00973677635193,0.03010199140287,-0.0630259357581381,-9.81002269130349,0.000872819218784571,0.552561819553375,-0.00212406273931265,-0.190253824457571,0.804283568612933,0.328982051865938,0.456839469078435
i,4.0197434425354,0.0393638640425401,-0.0654076021637069,-9.80591467146277,7.93891376815736e-05,0.549215078353882,-0.001324990298599,-0.19023702893844,0.804305927516068,0.328949240544372,0.456830765754217
i,4.02974581718445,0.0506924964862876,-0.0658113149932353,-9.81080711967945,0.00104079698212445,0.552788019180298,-0.00326606235466897,-0.190224732595387,0.804310858697344,0.328916913911564,0.456850479942608
i,4.03975033760071,0.0548303406431107,-0.0621290782499593,-9.81540379981995,0.000209008023375645,0.550581157207489,-0.00157511583529413,-0.190202868917722,0.804333702289237,0.328880920502936,0.456845158902984
i,4.0497567653656,0.0523847512890119,-0.0551963015784044,-9.81177274984121,-0.000276927603408694,0.553542852401733,-0.00240288302302361,-0.190190614721517,0.804336652568633,0.328849647541341,0.456867612636528
i,4.05975961685181,0.0474486054945039,-0.0531789932395099,-9.80825626615286,0.000970001216046512,0.548489451408386,-0.00204594852402806,-0.190174282817719,0.804354206731038,0.328834032133968,0.456854736774308
i,4.06976413726807,0.0410547443055082,-0.0511630868398352,-9.80941361949444,0.000161571631906554,0.554136753082275,-0.00246947025880218,-0.190161828423984,0.804358400342464,0.328808090748709,0.456871321559197
i,4.07977080345154,0.0309409995102789,-0.0537768221353414,-9.80374901786148,-0.000239217886701226,0.551185429096222,-0.00362567091360688,-0.190135697377908,0.804371381571806,0.328780526709783,0.456879034432475
i,4.08977341651917,0.0235784622524865,-0.0568526996164583,-9.80681717326045,0.000185526936547831,0.554035067558289,-0.0026567995082587,-0.190115941042668,0.804384194213753,0.328748832279703,0.456887621852859
i,4.099778175354,0.0249413207040634,-0.0620515058019897,-9.81364555797577,0.000883281347341835,0.551954627037048,-0.00309514324180782,-0.1901086707113,0.804388429972028,0.328733975515603,0.456893838513014
i,4.10978436470032,0.0294968514168402,-0.0629816673581488,-9.81069489147663,-0.000128998843138106,0.553660452365875,-0.00312389410100877,-0.190098502784097,0.804393993356032,0.328717538244683,0.456900128930154
i,4.11978721618652,0.0370129695178592,-0.0664104955959367,-9.8095235096097,-0.000971851754002273,0.552484154701233,-0.00233001168817282,-0.190090031267546,0.804399261712096,0.328690774995879,0.456913531627981
i,4.12979173660278,0.0445962117380695,-0.0630955988942878,-9.80731167877912,7.52390187699348e-05,0.551918506622314,-0.00252097612246871,-0.190076196564522,0.804414708532075,0.328664875757469,0.456910718325843
i,4.1397979259491,0.0486964364313986,-0.0599812160336878,-9.81119407317042,0.000149909858009778,0.552871823310852,-0.00203688605688512,-0.190065406971303,0.804420861971958,0.32863031534169,0.456929220792339
i,4.14980053901672,0.0522805693953298,-0.060173459803313,-9.81449077662826,0.000971813802607358,0.549439966678619,-0.00165272620506585,-0.190045007896624,0.804445054263003,0.328595417751123,0.456920243513606
i,4.15980505943298,0.044847108626063,-0.052814954833244,-9.81063293215632,-5.97699545323849e-05,0.553832054138184,-0.00253685005009174,-0.190032974971374,0.804448046689247,0.328567980152742,0.456939736431042
i,4.16981148719788,0.0393728693329031,-0.0512929009316955,-9.8071994505763,-0.000279967265669256,0.549729406833649,-0.00204050401225686,-0.190018191964259,0.804460311422164,0.328555715419826,0.456933150985963
i,4.1798141002655,0.0314248329378897,-0.0507611047430895,-9.8071258008182,-0.000209266232559457,0.554050624370575,-0.00206650723703206,-0.190010531774542,0.804459911027103,0.328542628823363,0.456946416706531
i,4.18981862068176,0.0239455693986733,-0.0537236260768026,-9.80090473434627,-0.000740141374990344,0.551088690757751,-0.00324884615838528,-0.190000237406793,0.804462798086226,0.328538561652482,0.456948618879366
i,4.19983100891113,0.0266169531655498,-0.06013533801632,-9.80651906709671,0.000201211412786506,0.553426802158356,-0.00210648612119257,-0.190000448141036,0.804463704243469,0.328529057538143,0.456953676501187
i,4.20983362197876,0.0290936249277904,-0.063014898340893,-9.80903718739748,-0.000874190765898675,0.550603806972504,-0.00124450132716447,-0.189985812647891,0.804477233381841,0.328499596891034,0.456957100932629
i,4.21983814239502,0.0392480876091868,-0.0646127619915875,-9.81147464367747,0.000514926388859749,0.552219092845917,-0.00305140437558293,-0.189974000993595,0.804488591957515,0.328475762848201,0.456959134518069
i,4.22984433174133,0.0455934243481839,-0.0659710584324785,-9.81008581966758,0.00045114490785636,0.551733791828156,-0.00221976102329791,-0.18996303227627,0.804497822117339,0.328446723669577,0.456968417361454
i,4.23984670639038,0.0526817432078999,-0.0596925215856871,-9.81228829814792,-0.000117346695333254,0.55210143327713,-0.00263021257705986,-0.189945183085926,0.804510887640377,0.328417895225195,0.4569734960567
i,4.24785351753235,0.0494558125644922,-0.0546594547553454,-9.81064812972546,-0.000129821739392355,0.552743315696716,-0.00173868902493268,-0.189939092866316,0.804514786223864,0.328395367734666,0.456985444688252
i,4.25786232948303,0.044347707736562,-0.052805081893201,-9.81033833312392,-0.000332053459715098,0.549821794033051,-0.00230197119526565,-0.189922739889094,0.804525048981477,0.328387128025782,0.456979965597946
i,4.26786708831787,0.0370298704203102,-0.05060702842623,-9.8106341012001,0.000837644736748189,0.553252220153809,-0.00165372935589403,-0.189914816281574,0.804530570218631,0.32836171347613,0.456991851009226
i,4.27787375450134,0.0298429249081528,-0.0526603898926172,-9.80994319632649,0.000432236935012043,0.549149572849274,-0.00201201578602195,-0.189877864032142,0.804561021316681,0.328319545554195,0.456983832571297
i,4.28788232803345,0.0266553991795285,-0.055917729454441,-9.80778864864111,-0.000129109364934266,0.553851544857025,-0.00303612533025444,-0.18985953015304,0.804567849106139,0.328279758929201,0.457008151302888
i,4.29788684844971,0.0241171265732963,-0.058894165149075,-9.80693992285728,-0.000192412524484098,0.551776230335236,-0.00158357818145305,-0.189849362225837,0.80457617310872,0.328261319682977,0.457010943531601
i,4.3078932762146,0.0292768382908776,-0.0638095786828082,-9.80538217202127,-8.77615966601297e-05,0.55214262008667,-0.00293994601815939,-0.189837129103056,0.804584202083362,0.328248991729788,0.457010701187223
i,4.31790208816528,0.039806488676928,-0.0643125826017698,-9.81036639017463,0.000107677864434663,0.550180613994598,-0.00210018642246723,-0.189828625976369,0.80459528670452,0.328220964075528,0.457014863188513
i,4.32790637016296,0.0462004366308916,-0.0647396443408448,-9.80855671040416,-0.000387588137527928,0.553707838058472,-0.00204401975497603,-0.189817256863983,0.804603252458889,0.328193947945633,0.457025010042292
i,4.33791279792786,0.0531442735525779,-0.0636199652616866,-9.81917981122732,-6.8414316046983e-05,0.55170464515686,-0.00290002138353884,-0.189806709615144,0.804611808269136,0.328168786277072,0.457032311983797
i,4.34792137145996,0.0527027311970014,-0.0580290270865662,-9.8185520347178,0.000112633446406107,0.551405727863312,-0.0024248503614217,-0.189788407346178,0.804626011757084,0.328144551839178,0.457032322520509
i,4.3579261302948,0.0476816561985528,-0.0547747973638587,-9.80836381818056,0.000258563843090087,0.551218748092651,-0.0021275021135807,-0.189784055684069,0.804629615312632,0.328132350326534,0.457036463448375
i,4.36793231964111,0.0368909505733871,-0.0514249161137966,-9.80434172305763,-0.000148465565871447,0.548989117145538,-0.00251783942803741,-0.18976866154765,0.804641648237882,0.328129589707956,0.457023787783685
i,4.37794089317322,0.0298138837600476,-0.0530821955012623,-9.80720061962008,0.00055691774468869,0.553875982761383,-0.00300573045387864,-0.189769272676954,0.804635389430878,0.328126154739803,0.457037042967542
i,4.38794541358948,0.0247127201295574,-0.0587781284208177,-9.81342460870147,0.000469501072075218,0.551156759262085,-0.00312548433430493,-0.189762845282556,0.804639814849972,0.328128051347986,0.457030404838901
i,4.39795184135437,0.0257513721450465,-0.0606313185394509,-9.80743325933218,0.000283594185020775,0.553627908229828,-0.00339242024347186,-0.189759800172751,0.804641016035154,0.328121118191406,0.457034587913616
i,4.40796041488647,0.033144302257814,-0.0617202965196688,-9.80737130001187,-0.000144662670209073,0.550072312355042,-0.00240334868431091,-0.189740338865451,0.804658380536741,0.328095577201208,0.457030489132598
i,4.41797113418579,0.0369528847775189,-0.0644974833151558,-9.80655823006332,-0.0010034303413704,0.553905725479126,-0.00330589362420142,-0.189726946704337,0.804664344315805,0.328067612767221,0.45704565146135
i,4.42797780036926,0.045913966106018,-0.0627416526237736,-9.80807857149839,0.000395904760807753,0.551712870597839,-0.00107894011307508,-0.189713185758298,0.80468274141518,0.328016509713402,0.457055534897326
i,4.43798589706421,0.0473583562280517,-0.0598307929786388,-9.81239468113184,0.000320221588481218,0.553217589855194,-0.00240187766030431,-0.1896869493451,0.804699895182524,0.327973983543254,0.457066724885606
i,4.44799017906189,0.0460498217795976,-0.0571350054228678,-9.81159154805541,0.000783114228397608,0.552184879779816,-0.00250118179246783,-0.189672756393864,0.804707776643196,0.327948147525117,0.457077419648415
i,4.45799660682678,0.0451187560411403,-0.0518743358151521,-9.81252795212269,-0.000187153782462701,0.552545666694641,-0.00250735436566174,-0.189656403416642,0.804718039400808,0.327927516642771,0.457080833543145
i,4.4680073261261,0.0370243197456468,-0.0512052637474379,-9.80469594332278,-0.00037907890509814,0.551978051662445,-0.00260570994578302,-0.189649143621986,0.804718186914778,0.327916748122976,0.457091296498288
i,4.47801184654236,0.030835242147441,-0.0520143927398138,-9.8071713935256,-0.000368147331755608,0.549916386604309,-0.00247210520319641,-0.189639175892313,0.804726953459268,0.32791750676625,0.457079516454129
i,4.48801970481873,0.0276320644752472,-0.0567667155331699,-9.80836381818056,-0.000356206583091989,0.553686141967773,-0.00210181507281959,-0.189640050439419,0.804722443746477,0.327908192312729,0.457093814772486
i,4.49802803993225,0.0283134982676129,-0.0586589909865987,-9.81137644400001,-0.000405326369218528,0.550314843654633,-0.00330834020860493,-0.189629756071671,0.804731968934241,0.327901533110664,0.457086028142224
i,4.50803232192993,0.0347253951535095,-0.0639524257861776,-9.81168974773288,0.000343342748237774,0.554759800434113,-0.0021415101364255,-0.189636478494008,0.804727185266935,0.327891396793597,0.457099072591838
i,4.5180389881134,0.0407815670870477,-0.0658663376826793,-9.81210475827455,0.000908401794731617,0.549913287162781,-0.00246450770646334,-0.189659374769462,0.804717091096716,0.327928380653165,0.457080770322872
i,4.52804756164551,0.0488095916494029,-0.0632524608232779,-9.81335914224982,0.000343259540386498,0.553347766399384,-0.00249115261249244,-0.189681322740824,0.804700843486615,0.327959885422427,0.457077535552249
i,4.53805232048035,0.0523341079471633,-0.0622672309119022,-9.81244611905813,0.000597864564042538,0.549071729183197,-0.00132195977494121,-0.189669405719407,0.804715236635382,0.327938074428323,0.457072804568503
i,4.54805827140808,0.0468521420052741,-0.0577146821740782,-9.81256068534851,-0.000250310404226184,0.552558124065399,-0.00189043884165585,-0.18965778372593,0.80472364493166,0.327916010553127,0.457078610296886
i,4.55806636810303,0.0418109512339812,-0.0544528810662683,-9.80702643209696,-0.000490099657326937,0.552632927894592,-0.00256701954640448,-0.189633349090506,0.804734181643788,0.327875043816375,0.457099715331278
i,4.56807255744934,0.032116861189506,-0.0529747896040324,-9.80445570482612,0.000602355867158622,0.551772177219391,-0.00207975273951888,-0.189609072505764,0.8047536534878,0.32783500431029,0.457104098603523
i,4.57807922363281,0.0288931818686891,-0.0524431441124761,-9.80851345578432,-0.000534398714080453,0.553285002708435,-0.0025064789224416,-0.189586271060719,0.804763136528715,0.327797704349357,0.457123654741232
i,4.58808779716492,0.0245664412433747,-0.0555592440061271,-9.81229648145437,-0.000238798325881362,0.549794554710388,-0.00231547304429114,-0.189559254930824,0.804784610348031,0.327771594376705,0.457115731133712
i,4.5980920791626,0.0267237973737763,-0.0596171136953402,-9.81180548306703,-0.000150156120071188,0.55423104763031,-0.00299898511730134,-0.189548707681984,0.804787434186881,0.32774314525396,0.457135550689224
i,4.63812375068665,0.0541212288259529,-0.0622791177125182,-9.81152023638487,-0.000272925128228962,0.552887201309204,-0.00180785963311791,-0.189498278977741,0.804825977479844,0.327663888105335,0.457145518418897
i,4.64813208580017,0.0513907170166727,-0.0605649935712805,-9.8090418635726,-0.0010226194281131,0.550846993923187,-0.00200886465609074,-0.189489291162296,0.804832278433697,0.32765059077463,0.457147509857489
i,4.65813636779785,0.0419067580249626,-0.0519464283704059,-9.80686978023052,0.000726363621652126,0.551789700984955,-0.00234387256205082,-0.189485550629491,0.804835039052274,0.327643615471202,0.457149311635263
i,4.66814279556274,0.0346907850644318,-0.0503700641654665,-9.80070073620677,0.0005225520581007,0.552615284919739,-0.00284656044095755,-0.189486277662627,0.804827073297906,0.327649473883145,0.457158910580011
i,4.67815089225769,0.0250952052246779,-0.0515918427790748,-9.80401322175562,-0.000386111671105027,0.554050087928772,-0.00375403370708227,-0.189479513093441,0.804823490815782,0.32765895692406,0.457161165436407
i,4.68815469741821,0.0238003408252611,-0.0576743273308035,-9.80497300669849,-0.000513641512952745,0.552298665046692,-0.00292146089486778,-0.189466226299448,0.80483175159809,0.327630044185981,0.457172766356459
i,4.69816088676453,0.0247872717866674,-0.0616622005237266,-9.81428034874797,-0.00147305894643068,0.55045610666275,-0.00435273302718997,-0.189423457784922,0.804858451626622,0.327591290158775,0.457171280680049
i,4.70816874504089,0.0315119974814006,-0.0646605512226466,-9.81162661936879,-0.000277680810540915,0.554463386535645,-0.00327217183075845,-0.189406788706336,0.80486388857008,0.327551461386933,0.457197137771611
i,4.71817302703857,0.0405998903772095,-0.0642674465521006,-9.81655413889885,0.000650204834528267,0.550048172473907,-0.00277572614140809,-0.189384619464019,0.804888312668792,0.327517596394154,0.457187570436999
i,4.72817969322205,0.0462044049865333,-0.0648204590586713,-9.80655121580064,0.000272613542620093,0.553675293922424,-0.00168713240418583,-0.189378402803864,0.804893623171704,0.327481940160314,0.45720634685801
i,4.73818802833557,0.0527582470767898,-0.0587276038099779,-9.80761212303042,-0.000491061538923532,0.549238324165344,-0.00236786738969386,-0.189362250024172,0.804908037393895,0.32746676729485,0.457198644521445
i,4.74819207191467,0.050601233439683,-0.0582655712222215,-9.8051138764739,-6.81573728797957e-05,0.55377984046936,-0.00209078192710876,-0.189359931947504,0.804909091065108,0.327443881556108,0.457214028121151
i,4.75819873809814,0.0420065514378948,-0.0535067319231108,-9.80905823018551,-0.000820610031951219,0.55083817243576,-0.00212520360946655,-0.189349742946876,0.804915729193748,0.327435641847225,0.45721258459159
i,4.78121423721313,0.0242643827070133,-0.0512787354090251,-9.80707319384813,-0.000442361779278144,0.550321757793427,-0.00269063049927354,-0.189337804852036,0.804920934329539,0.327428160781614,0.457213648799515
i,4.79121780395508,0.0229593576731859,-0.0579261603671359,-9.80925346049666,0.000772025960031897,0.552745521068573,-0.0020780167542398,-0.189334822962503,0.804926055171633,0.327421438359276,0.457210687983407
i,4.8012228012085,0.0262485605278634,-0.0636357336529763,-9.80827964702845,0.000626903551165015,0.551398098468781,-0.00205927505157888,-0.189335897707141,0.804928183587483,0.327424283271551,0.457204471323251
i,4.81122970581055,0.0348670960459858,-0.0654258730393369,-9.80990578692555,0.000387366599170491,0.551221251487732,-0.00252981157973409,-0.189334570081412,0.804929827314575,0.327426264173431,0.457200572739764
i,4.82123303413391,0.0460262765072286,-0.0651641990290023,-9.80715970308781,-0.000561358872801065,0.55052661895752,-0.00108994636684656,-0.189334780815655,0.804933599457517,0.3274108595003,0.457204956012009
i,4.83123826980591,0.0544441543371184,-0.0619995198864257,-9.81273604191542,0.000123386504128575,0.550930023193359,-0.00128258543554693,-0.189328637912484,0.804942618883098,0.327395770928533,0.457202543104932
i,4.84124541282654,0.0559081076761475,-0.0602408807500266,-9.81305051469207,0.000738978385925293,0.554565250873566,-0.00157483294606209,-0.189327700145105,0.804942829617341,0.327366310281424,0.4572236270659
i,4.8512544631958,0.0520890334451804,-0.0555133088054368,-9.81146996750235,0.000916365766897798,0.552630007266998,-0.0021113792899996,-0.189310114372564,0.804954525367803,0.327337502910467,0.457230844713707
i,4.86125946044922,0.0411899834911572,-0.0506760248420993,-9.80952234056592,0.00164215255063027,0.554373681545258,-0.00187103904318064,-0.189303202289408,0.804957159545834,0.327309664917026,0.457248967858567
i,4.87126636505127,0.0358057400194113,-0.053699322752608,-9.80702760114074,-0.0010659002000466,0.551027119159698,-0.00243324297480285,-0.189277724519483,0.80497243777842,0.327283428503827,0.457251517742902
i,4.93129777908325,0.0506262674162397,-0.060010994684021,-9.80491923068464,0.000328658963553607,0.5509033203125,-0.00236924225464463,-0.189200964571633,0.805030495062243,0.327181791378643,0.457253762062585
i,4.94130086898804,0.0549427058432484,-0.0600312520207604,-9.81066683442593,0.000898843631148338,0.551285982131958,-0.00211646500974894,-0.189198730788662,0.805037449292248,0.32717112822597,0.457250053139916
i,4.95130944252014,0.0529346493898891,-0.05393308584271,-9.812510416466,-0.000569245021324605,0.553269505500793,-0.00265679857693613,-0.189191913535915,0.805035426243519,0.327157051178568,0.457266522020972
i,4.96131634712219,0.0439159332897514,-0.050571075763437,-9.81021792161465,-0.000427339808084071,0.551046550273895,-0.00333513948135078,-0.189172694572994,0.80504672159892,0.327142131194195,0.457265257615516
i,4.97131967544556,0.0327611824084539,-0.0502502326115035,-9.80766589904428,7.54940556362271e-05,0.553479015827179,-0.00286942510865629,-0.189166277715308,0.805045372899768,0.327125103867396,0.457282421919572
i,5.01134300231934,0.0318667748689768,-0.066044187600771,-9.80697616321445,0.000738880364224315,0.554917275905609,-0.00343892211094499,-0.189092784148218,0.805093188499403,0.327014236582388,0.457308036666755
i,5.02135014533997,0.0420296217862284,-0.0655140125470934,-9.80905706114173,-0.000750956824049354,0.551018595695496,-0.00235815742053092,-0.18907793792083,0.805108508878837,0.326983574750097,0.457309016580983
i,5.0513653755188,0.054132371274475,-0.0562924627846573,-9.81230583380461,-0.000117129413411021,0.552370488643646,-0.00199878914281726,-0.189025191139918,0.805154491090562,0.326876395314334,0.45732648644969
i,5.08138012886047,0.0258760145881562,-0.0544379026928451,-9.80484967257977,-0.000791172729805112,0.554244756698608,-0.00293479324318469,-0.188995161510354,0.805160665603869,0.326841645237736,0.457352933597131
i,5.11139512062073,0.0340280354229384,-0.0628865775197977,-9.80989058935642,-0.000577067956328392,0.550668358802795,-0.00287119322456419,-0.188919244499474,0.805215013965024,0.326734444728549,0.457365166719911
i,5.12139844894409,0.0431896374423522,-0.0652617776519619,-9.80530384608805,0.000691333203576505,0.555114328861237,-0.0025040740147233,-0.188915272159002,0.805215540800631,0.326704415098985,0.457387304352092
i,5.13140344619751,0.0524721007789019,-0.0607841618804494,-9.81629344213605,5.07540244143456e-05,0.550936937332153,-0.00289957760833204,-0.188900773643114,0.805226119659607,0.326689874436249,0.457385070569121
i,5.14141011238098,0.0512958692069165,-0.0600010167127009,-9.80624375728667,0.000408190302550793,0.553266406059265,-0.00248597958125174,-0.188898013024537,0.805226667568637,0.32667398507436,0.457396639879037
i,5.15141367912292,0.0519596394784283,-0.054775359052862,-9.80692121815681,-0.000171165127540007,0.552256107330322,-0.00191151583567262,-0.188878077565191,0.80523861620019,0.326636748333701,0.4574104218985
i,5.16141891479492,0.0423457978961989,-0.053903188461368,-9.80662018938363,0.000725686375517398,0.552652060985565,-0.00188416172750294,-0.188853969567843,0.805255833187807,0.326598542215525,0.457417333981656
i,5.17142558097839,0.0335908746982459,-0.0486996695681009,-9.80791607441306,-0.000564625835977495,0.553719401359558,-0.00304377730935812,-0.188839639639349,0.805254948103988,0.326585434545638,0.45743419272106
i,5.18142890930176,0.0274201684403699,-0.0539990500512766,-9.80542951829433,-0.000842192210257053,0.551299035549164,-0.00379917514510453,-0.188833170098103,0.805257055446414,0.326601956110255,0.457421274711991
i,5.1914336681366,0.0231976234084694,-0.0573198878699448,-9.80575860411823,-0.000156727444846183,0.554920136928558,-0.00208612577989697,-0.188839586955788,0.805249342573136,0.32659559193613,0.457436900656077
i,5.20144057273865,0.0246092414887738,-0.0613190313755535,-9.8094498598516,-0.000120838376460597,0.549552738666534,-0.00209501781500876,-0.188820199405473,0.805269151591936,0.326573085519025,0.457425984622313
i,5.21144390106201,0.0309994471326703,-0.0662934039883316,-9.81105963313579,-0.000632386771030724,0.554231703281403,-0.00215982901863754,-0.188807049588738,0.805273619157879,0.326539873802398,0.457447353074508
i,5.22144865989685,0.04206579364473,-0.0685055864453549,-9.80817677117586,0.000198916299268603,0.550143837928772,-0.00172702816780657,-0.188791961016971,0.80529452399474,0.326501435876556,0.457444234207718
i,5.2314555644989,0.0480288211018313,-0.0664799943353049,-9.81041081383824,-0.000286517722997814,0.554044127464294,-0.00143767986446619,-0.188773542844172,0.805305060706868,0.326458193209984,0.457464043226518
i,5.24145889282227,0.0540790108191548,-0.0622000976595562,-9.81030676894188,-0.000267214199993759,0.551343858242035,-0.00263867899775505,-0.188745230698685,0.805328262546973,0.32640523569483,0.457472757087448
i,5.24946618080139,0.0514398807874881,-0.0577473788672825,-9.81264485650063,0.00051221955800429,0.552630364894867,-0.00075754284625873,-0.188720922503806,0.805353213481291,0.326348253155643,0.457479532193346
i,5.25947523117065,0.0459095776252681,-0.0527650238774484,-9.81113679002523,-0.000177371955942363,0.550704896450043,-0.00260042888112366,-0.188696572162079,0.805368028098543,0.326313460932198,0.457488246054275
i,5.26948618888855,0.0346027985370136,-0.051207903229096,-9.80840590375662,-0.000468914222437888,0.552663862705231,-0.00156898843124509,-0.188677753594219,0.805384528589735,0.326277235715903,0.45749277684049
i,5.27949357032776,0.0274563106161193,-0.0534840588669991,-9.80223452164531,0.000353374751284719,0.553221821784973,-0.00337076932191849,-0.188664119088725,0.805386467344766,0.326257173816011,0.457509235184834
i,5.28950262069702,0.0235695756931324,-0.0570729867370566,-9.80374784881771,0.000938817451242357,0.552418828010559,-0.00286802207119763,-0.188655500058205,0.805394454172559,0.326247922582763,0.457505463041892
i,5.29950761795044,0.0280807124250452,-0.0599751881517004,-9.80485902493,-0.000948076078202575,0.554128050804138,-0.00415315432474017,-0.188644078262258,0.805391672480557,0.326232665423602,0.45752590426342
i,5.30951476097107,0.0336506580444868,-0.0661089507995173,-9.80396061478555,0.000250144279561937,0.550361692905426,-0.00346092274412513,-0.188628304804203,0.805407561842446,0.326218040467169,0.457514830178973
i,5.31952381134033,0.0399239638770232,-0.0676216843168717,-9.81173884757161,-4.92375402245671e-05,0.554297506809235,-0.00190457329154015,-0.188624269243458,0.805409521670902,0.326189022361969,0.45753382787094
i,5.32952880859375,0.0463757383988705,-0.0658914492910495,-9.81170143817067,0.000294653087621555,0.550792872905731,-0.00264150160364807,-0.188615133914044,0.805421343861909,0.326174081304172,0.457527411013254
i,5.3395357131958,0.0511168365453137,-0.0584949001658009,-9.81197967059016,0.000535108032636344,0.553691983222961,-0.00128666067030281,-0.188616366709362,0.805423071882698,0.326155157369191,0.45753734713279
i,5.34954476356506,0.0483114922344219,-0.0562014508998021,-9.81228479101658,0.00094642536714673,0.548790514469147,-0.00195179111324251,-0.188592690717211,0.805443934572711,0.326117014471288,0.457537631624018
i,5.35954999923706,0.0422952550190501,-0.0507318147165235,-9.81241689296365,0.000535144936293364,0.552446961402893,-0.00238023418933153,-0.188563177386542,0.805462479186056,0.326074024685807,0.457547673110676
i,5.38957047462463,0.0240716457470437,-0.0574812615772709,-9.80756653032303,-0.00100032426416874,0.552716255187988,-0.00186119787395,-0.188508028235265,0.805494869039136,0.325987181104451,0.457575342516723
i,5.39957714080811,0.0265352205656935,-0.0613850732159335,-9.81125486344695,-0.000926303211599588,0.552128970623016,-0.00264563132077456,-0.188477039764898,0.80551727008912,0.325945055329364,0.457578556213922
i,5.40958571434021,0.032325090262841,-0.0648854779857444,-9.80749054247737,3.62725113518536e-05,0.554075717926025,-0.00190599868074059,-0.188466861300982,0.805524519347064,0.325902402718671,0.457600409354875
i,5.41959047317505,0.0407054194111843,-0.0682298656433588,-9.80616017065644,0.000903098611161113,0.551210999488831,-0.00139167171437293,-0.188461761532312,0.805540282268407,0.325882087937689,0.457589240440019
i,5.42959761619568,0.0460844958007568,-0.0668699572006939,-9.81163947885036,0.000639281468465924,0.554897904396057,-0.00229823822155595,-0.188463278818859,0.805538448880497,0.325856020111885,0.457610482451669
i,5.43960666656494,0.0512541215575766,-0.0603551639126148,-9.81217723898888,0.000435385300079361,0.549363195896149,-0.00252329604700208,-0.188454406907247,0.805546098533501,0.325856041185309,0.457600556868845
i,5.44961190223694,0.0465323628658429,-0.0573585667793639,-9.8095632570982,0.000678193755447865,0.555582463741302,-0.00281391805037856,-0.18846160348163,0.805536194024101,0.325848496899426,0.457620376424357
i,5.45961880683899,0.0430813182296697,-0.0525698255323339,-9.81024831675291,-0.000445417652372271,0.55133593082428,-0.00363775016739964,-0.188447568581076,0.805541841701802,0.325841331935179,0.457621387948721
i,5.46962785720825,0.032206101242383,-0.0514921269979561,-9.80468600645065,6.76480995025486e-05,0.55357152223587,-0.00185068254359066,-0.188446325249045,0.80554049300265,0.325833492621356,0.457629922685545
i,5.47963309288025,0.0267190344336908,-0.0542761910588015,-9.80597779982686,-0.00121504731941968,0.55176192522049,-0.00289203668944538,-0.188434640035296,0.805543085033833,0.325825252912472,0.457636044515291
i,5.48964548110962,0.0224781500275014,-0.0571302790154004,-9.80430080652535,-0.00127383868675679,0.554393410682678,-0.00284536648541689,-0.188427053602564,0.805543253621227,0.325817413598649,0.457644431738145
i,5.49965476989746,0.0277036432905588,-0.0592163143421058,-9.81065163685679,-3.31103656208143e-05,0.553541719913483,-0.00350192585028708,-0.188409088508386,0.805550545026019,0.325784412616265,0.457662481126019
i,5.5096595287323,0.0342201079459162,-0.0636399212043267,-9.81011036958694,-0.000644344952888787,0.551325798034668,-0.00203989003784955,-0.18837048199515,0.805579373470401,0.325726755727502,0.457668592419053
i,5.51966643333435,0.0448296643009176,-0.0635647781754611,-9.80862685303092,0.000480183429317549,0.552728950977325,-0.00252265599556267,-0.188354708537095,0.805590626678953,0.325681785040141,0.457687358303353
i,5.52967500686646,0.0497785188799491,-0.0657395877641626,-9.80830185886025,2.07898556254804e-05,0.549683392047882,-0.00150156661402434,-0.188341168862011,0.805611573662663,0.325657129133762,0.457673460380056
i,5.53967952728271,0.051755750936782,-0.0599058446759591,-9.81278046557903,-0.000376482552383095,0.554942548274994,-0.00151736161205918,-0.18833546850075,0.805609108072025,0.325630681986321,0.457698969760118
i,5.54968667030334,0.0468477626576787,-0.0555923608244397,-9.80678444003463,0.000150039180880412,0.550663888454437,-0.000629079062491655,-0.188322339757438,0.805627821272764,0.325603708003274,0.457690772198082
i,5.55969548225403,0.0377961009858758,-0.0493800895803142,-9.8071713935256,-0.000175082706846297,0.553540349006653,-0.00223228102549911,-0.188309790533294,0.805629949688614,0.325583287855171,0.457706693170107
i,5.56970047950745,0.0325723224725807,-0.0508178033663891,-9.80344331291318,0.000708117906469852,0.550558745861053,-0.00313052325509489,-0.188308873839339,0.805628853870552,0.325588598358083,0.4577051232
i,5.5797073841095,0.0260438888182165,-0.0492118842734024,-9.81149334837794,0.000508224533405155,0.55201917886734,-0.00285950372926891,-0.188302920596987,0.805631993810767,0.325591780445146,0.457699865380648
i,5.58971619606018,0.0240358483478776,-0.0556215458197286,-9.80848306064606,-0.000665237079374492,0.550714552402496,-0.00361846713349223,-0.188298221223378,0.805632352058979,0.325603054727122,0.457693058664614
i,5.59972047805786,0.0315718744424754,-0.0611573288746644,-9.81041198288202,2.87898001261055e-05,0.550718545913696,-0.0026343974750489,-0.188303394749033,0.805632330985555,0.325620946064315,0.457678191363802
i,5.60972690582275,0.0375280680167023,-0.0634656560493866,-9.80816508073807,-0.000668158754706383,0.551455318927765,-0.00308210076764226,-0.188293026624299,0.805637831149285,0.325598165692695,0.457689065250718
i,5.61973571777344,0.0449284941660473,-0.0653649229326052,-9.81057564901113,-0.00160185457207263,0.550245583057404,-0.00177431595511734,-0.188254894263109,0.805669272698275,0.325541604621994,0.457689729063582
i,5.62974047660828,0.0506056173538556,-0.0621182234958047,-9.8026658987999,-0.000445716490503401,0.551697015762329,-0.00145902798976749,-0.188238256794659,0.805682443588434,0.325490754449265,0.457709485398821
i,5.63974738121033,0.0508394306763075,-0.0595257912832312,-9.81169442390799,0.00062296527903527,0.550499439239502,-0.00181358959525824,-0.18822741451788,0.805695614478594,0.32547235734989,0.45770393255153
i,5.64975619316101,0.0471683683475945,-0.0564040973324329,-9.81258640431166,-0.000137689727125689,0.552522540092468,-0.0014343976508826,-0.188219764864875,0.805700756394112,0.325444877604661,0.457717398469629
i,5.67977643013,0.0251004864712828,-0.052110820585303,-9.80934581495523,0.00121426163241267,0.549522936344147,-0.00418613338842988,-0.188192717124843,0.805717762647486,0.325423235197951,0.457714100478733
i,5.68978118896484,0.0256839900142397,-0.0557998386958148,-9.80789853875637,-0.000781421316787601,0.554317831993103,-0.0019474383443594,-0.1881914632561,0.805716055700122,0.325415332663855,0.457723151514451
i,5.72281002998352,0.0459567092692014,-0.0685129340681713,-9.8068428922236,-0.000341125240083784,0.549654066562653,-0.00170029816217721,-0.188187965067674,0.805726508118552,0.325383132471593,0.457729052073242
i,5.73281955718994,0.0526968722783728,-0.0632158003410092,-9.81032781172991,-0.000349529058439657,0.551740169525146,-0.00172848964575678,-0.188183076033246,0.805732851219253,0.325373333329314,0.45772686043712
i,5.74282503128052,0.0495003869251581,-0.0574054107289296,-9.80863503633737,0.00045438390225172,0.549583792686462,-0.00205476325936615,-0.188157071427715,0.805752133402447,0.325327330044164,0.457736385624883
i,5.75283241271973,0.0447007909239735,-0.0538696241184836,-9.80418799380064,0.000995849492028356,0.551928102970123,-0.00136467919219285,-0.188117632514221,0.805784544328952,0.325253193737634,0.457748134058906
i,5.76284193992615,0.0346964499035268,-0.0520466419084463,-9.80261738348305,-7.73235369706526e-05,0.553654313087463,-0.00153633544687182,-0.188094925899586,0.805794469911776,0.325203144355027,0.457775729707968
i,5.79286456108093,0.0259538952800911,-0.0562341201935429,-9.8120907297492,-0.000957876793108881,0.551930546760559,-0.00208956561982632,-0.188067625278463,0.805809916731755,0.325187107479168,0.457770998724223
i,5.8028712272644,0.0301143576940987,-0.0627944833561312,-9.80792191963196,-0.000784455565735698,0.554132282733917,-0.00189653830602765,-0.188064959490294,0.805811560458847,0.325165486145882,0.457784664839852
i,5.81287884712219,0.03666550550377,-0.0647344201764558,-9.8064740589112,-0.000541196495760232,0.54880553483963,-0.00273084943182766,-0.188022939082329,0.805843739577685,0.325108608973817,0.45778559207052
i,5.82288861274719,0.049542550133029,-0.0662936094843084,-9.80650328500569,-7.3912255174946e-05,0.552810609340668,-0.00182856677565724,-0.187997282188298,0.805865613792063,0.325044166442444,0.457803409650728
i,5.83289408683777,0.05325154245249,-0.0615381220529089,-9.8085146248281,0.000937165110372007,0.550447463989258,-0.00226841401308775,-0.187992962136326,0.805873242371643,0.32503097447886,0.457801112647484
i,5.85291075706482,0.0466518656262429,-0.0540477343314793,-9.81039327818155,-0.000529859273228794,0.54967874288559,-0.00206665089353919,-0.187981319069425,0.805877667790737,0.325008257327512,0.45781431514778
i,5.86291599273682,0.0366410012501758,-0.0502321717984276,-9.80689316110611,8.15070234239101e-06,0.552253723144531,-0.0020324089564383,-0.187960709260503,0.80589031184529,0.324978585946161,0.457821522258875
i,5.90294623374939,0.0288068141929107,-0.0635575949494261,-9.80884078804255,-0.000909695459995419,0.549915313720703,-0.00295834988355637,-0.187880883129423,0.805947399751598,0.324871174702731,0.457829951628577
i,5.93297457695007,0.0514962186511839,-0.0613073272380279,-9.80948493116498,-0.000975363305769861,0.554442465305328,-0.00165613915305585,-0.187855110331559,0.805968388882156,0.324800536584626,0.457853701377713
i,5.94298410415649,0.0547834692940814,-0.0590863632529275,-9.81250924742222,-0.00037912221159786,0.551798224449158,-0.00129948393441737,-0.187844742206825,0.805979684237557,0.324769600797819,0.457859981258141
i,5.95298957824707,0.0476014990678523,-0.0531478994149249,-9.80854618901014,-4.89974045194685e-05,0.55368959903717,-0.00143656716682017,-0.187833394167864,0.805989356939291,0.324744923818016,0.45786517585722
i,5.96299695968628,0.0414134489495307,-0.052460405774531,-9.81229648145437,0.000378103693947196,0.551640927791595,-0.00325688300654292,-0.187793133390823,0.806010872905455,0.324679153660915,0.45789043235619
i,5.97300624847412,0.0298525969187962,-0.049129959877301,-9.80672014262676,2.25772746489383e-05,0.551590144634247,-0.00286169303581119,-0.187734001362363,0.806051586761117,0.324594438495408,0.457903034263895
i,5.9830117225647,0.0233817729198956,-0.0560557222861797,-9.80468133027554,0.000156260197400115,0.551866888999939,-0.00285801244899631,-0.187703065575556,0.806070637136644,0.324533494152461,0.457925372093606
i,5.99301934242249,0.0240668394244742,-0.0581481005887035,-9.80969886617661,-0.000123582314699888,0.551606893539429,-0.00393995689228177,-0.187690115956351,0.806077759954042,0.324528984439671,0.457921462973407
i,6.00302886962891,0.0306920068850042,-0.0601445944684325,-9.80409622386396,-0.000401795230573043,0.553379833698273,-0.00304228975437582,-0.187687555535304,0.806072575891675,0.324520597216817,0.457937552532826
i,6.01303434371948,0.0389141977460124,-0.0647764874862041,-9.8094837621212,-0.0011051376350224,0.548760235309601,-0.00335253262892365,-0.187671360608763,0.806087538022897,0.324519459251907,0.457918639134556
i,6.02304196357727,0.046536911176797,-0.0636870208822191,-9.8135193012476,-0.000383369653718546,0.554040193557739,-0.00203946814872324,-0.187676639501539,0.806082459327651,0.32450793208884,0.457933548582217
i,6.03305149078369,0.0519257143759402,-0.0611222666944377,-9.8103055998981,0.000556067505385727,0.550126612186432,-0.00244389707222581,-0.187667999397595,0.80609027756805,0.324502052603472,0.457927479436032
i,6.04305696487427,0.0538101353164762,-0.0565878701012349,-9.81435750563741,-0.000487965357024223,0.554290294647217,-0.00194879365153611,-0.187667599002534,0.806086652939078,0.324484182339704,0.457946845912922
i,6.05306458473206,0.0463510286492994,-0.0559008148522582,-9.8110420974791,0.00120202358812094,0.548785984516144,-0.00182350061368197,-0.18765440703895,0.806102921622603,0.324471116816665,0.457932853159217
i,6.07307887077332,0.0283011388262501,-0.0519213258951902,-9.80647639699876,-0.000827158626634628,0.548666894435883,-0.00279430649243295,-0.187618729731685,0.806122519907161,0.32443786295319,0.457936625302158
i,6.08308601379395,0.0254374496409553,-0.0541767492723186,-9.80858593649864,-0.000463737815152854,0.552488029003143,-0.00284332875162363,-0.187606464998769,0.806132319049439,0.324422416133211,0.457935192309309
i,6.09309506416321,0.0220809993695002,-0.0572465714719845,-9.80137059829235,-0.00113049987703562,0.550378620624542,-0.00329720275476575,-0.187594800858443,0.806136997349624,0.324411752980538,0.4579393543106
i,6.10310053825378,0.0279143497320591,-0.0611480952554382,-9.8116885786891,-0.000866086687892675,0.551034212112427,-0.00253190146759152,-0.187581672115132,0.806149262082541,0.324393419101435,0.457936045782991
i,6.11310768127441,0.0368016968207783,-0.0652532609853661,-9.81083985290527,7.20991229172796e-05,0.552330613136292,-0.00221512676216662,-0.187579153840934,0.806150905809633,0.324377866914335,0.457945138965558
i,6.12311673164368,0.0499645201384556,-0.0649815587713616,-9.81250924742222,-0.000626918743364513,0.549935817718506,-0.00186509802006185,-0.187565761679819,0.806164434948005,0.324363663426387,0.457936867646537
i,6.13312196731567,0.0523385009944905,-0.063124943719781,-9.80916812030077,-0.000491009908728302,0.553967475891113,-0.00222994200885296,-0.187567742581699,0.806163086248852,0.324344781638254,0.457951871924607
i,6.14313530921936,0.0535649146840209,-0.0562327045545913,-9.81115783281326,-0.000216385524254292,0.548884510993958,-0.00264890515245497,-0.187546131785125,0.806178490921983,0.324333844531065,0.45794124038207
i,6.15314435958862,0.0486930160650285,-0.0531762030608021,-9.80670845218897,-0.000649150111712515,0.552449226379395,-0.00254337931983173,-0.187536585523938,0.806181356907682,0.324317744434934,0.45795158743338
i,6.1631498336792,0.0401121662257705,-0.0511746905126609,-9.80482395361662,-0.000547691306564957,0.549542725086212,-0.0025649257004261,-0.187543761024897,0.806174297310556,0.324336520855946,0.457947783680302
i,6.17315697669983,0.0290040766309481,-0.0517358771925326,-9.80436101227999,5.03999799548183e-05,0.553566694259644,-0.00289168767631054,-0.187561325724014,0.806158239361274,0.324364295629114,0.457949227209863
i,6.18316960334778,0.0201356077726348,-0.0529216529109981,-9.80912837281227,-3.96311079384759e-05,0.550712943077087,-0.00228950777091086,-0.187557521970935,0.80615946161988,0.324367372349056,0.457946371760877
i,6.1931746006012,0.0208462402600213,-0.0597592758121202,-9.80849942725897,-3.64285078831017e-05,0.553690791130066,-0.00355036160908639,-0.187545078113913,0.806164772122793,0.324354475413411,0.457951397772561
i,6.20318174362183,0.0265540120311314,-0.0609879271245096,-9.80939959096908,-0.000199416041141376,0.553301393985748,-0.0029862595256418,-0.187535278971634,0.806165214664702,0.324335235377066,0.457968151144845
i,6.23320293426514,0.0548723394542001,-0.0611974645222304,-9.81145126280189,-0.00063256366411224,0.549896836280823,-0.00122662377543747,-0.187500465674764,0.80620348400315,0.324282130347943,0.457952767545138
i,6.27123951911926,0.0290505073052715,-0.0513546456228709,-9.8070521510601,-0.0010531892767176,0.549166262149811,-0.00192816799972206,-0.187461479839891,0.806223103361132,0.324233008196003,0.457968825494421
i,6.28124690055847,0.0221447076888988,-0.0540092015525326,-9.80558207850754,-0.000683802762068808,0.552760779857635,-0.00208673439919949,-0.187450911517627,0.806226390815316,0.324220617022541,0.457976106362501
i,6.29125595092773,0.0217303045019973,-0.0610461692509241,-9.80970821852684,-0.000422610115492716,0.549961566925049,-0.00330526591278613,-0.187431587187585,0.806241142212295,0.3241991221298,0.457973430037621
i,6.30126690864563,0.025229284499702,-0.0620428749709623,-9.80824340667128,-0.00110717990901321,0.554525554180145,-0.00337884575128555,-0.18741056644689,0.806251341749634,0.324167090524932,0.457986569317644
i,6.31127405166626,0.0381233715953073,-0.0662816678847652,-9.81674586207867,-0.000456335488706827,0.551250040531158,-0.0016614452470094,-0.18740095696543,0.806262953206399,0.324135164287185,0.457992722757526
i,6.32128310203552,0.0438951873292448,-0.0638033544379985,-9.8118358782053,0.000748970778658986,0.55018550157547,-0.00220006518065929,-0.187392569742576,0.806277852117347,0.324125322998058,0.457976917689335
